"experiment","version","interview_date","workerId","trial_num","time_elapsed","reaction_time","trial_id","condition","choice","correct","cells","valid_trials","valid_id"
1,"detect-chase","05/17/2022","A107RJSS561Y7R",1,51127,2293.60000000149,"93","mirror",0,1,"CR",TRUE,TRUE
1,"detect-chase","05/17/2022","A107RJSS561Y7R",2,57159,4023.80000000075,"158","chase",1,1,"Hit",TRUE,TRUE
1,"detect-chase","05/17/2022","A107RJSS561Y7R",3,64337,5174.20000000112,"221","chase",1,1,"Hit",TRUE,TRUE
1,"detect-chase","05/17/2022","A107RJSS561Y7R",4,69143,2791.20000000112,"145","mirror",0,1,"CR",TRUE,TRUE
1,"detect-chase","05/17/2022","A107RJSS561Y7R",5,74226,3065.09999999963,"40","mirror",0,1,"CR",TRUE,TRUE
1,"detect-chase","05/17/2022","A107RJSS561Y7R",6,79124,2893.79999999888,"93","chase",1,1,"Hit",TRUE,TRUE
1,"detect-chase","05/17/2022","A107RJSS561Y7R",7,83804,2672.39999999851,"221","mirror",1,0,"FA",TRUE,TRUE
1,"detect-chase","05/17/2022","A107RJSS561Y7R",8,88288,2481.80000000075,"145","chase",1,1,"Hit",TRUE,TRUE
1,"detect-chase","05/17/2022","A107RJSS561Y7R",9,91623,1327.5,"40","chase",1,1,"Hit",TRUE,TRUE
1,"detect-chase","05/17/2022","A107RJSS561Y7R",10,94856,1229,"158","mirror",0,1,"CR",TRUE,TRUE
1,"detect-chase","05/17/2022","A107RJSS561Y7R",11,97928,1054.89999999851,"223","mirror",1,0,"FA",TRUE,TRUE
1,"detect-chase","05/17/2022","A107RJSS561Y7R",12,102770,2839.30000000075,"223","chase",0,0,"Ms",TRUE,TRUE
1,"detect-chase","05/17/2022","A107RJSS561Y7R",13,111477,3821.19999999925,"46","mirror",1,0,"FA",TRUE,TRUE
1,"detect-chase","05/17/2022","A107RJSS561Y7R",14,115512,3031.30000000075,"190","chase",0,0,"Ms",TRUE,TRUE
1,"detect-chase","05/17/2022","A107RJSS561Y7R",15,119150,2622.90000000037,"76","chase",0,0,"Ms",TRUE,TRUE
1,"detect-chase","05/17/2022","A107RJSS561Y7R",16,122541,2388.09999999963,"104","chase",0,0,"Ms",TRUE,TRUE
1,"detect-chase","05/17/2022","A107RJSS561Y7R",17,126430,2886.69999999925,"192","chase",0,0,"Ms",TRUE,TRUE
1,"detect-chase","05/17/2022","A107RJSS561Y7R",18,133227,5777.5,"45","mirror",0,1,"CR",TRUE,TRUE
1,"detect-chase","05/17/2022","A107RJSS561Y7R",19,136992,2749,"47","mirror",1,0,"FA",TRUE,TRUE
1,"detect-chase","05/17/2022","A107RJSS561Y7R",20,141075,3070.69999999925,"34","mirror",1,0,"FA",TRUE,TRUE
1,"detect-chase","05/17/2022","A107RJSS561Y7R",21,144712,2635.5,"190","mirror",0,1,"CR",TRUE,TRUE
1,"detect-chase","05/17/2022","A107RJSS561Y7R",22,149451,3735.70000000112,"96","mirror",0,1,"CR",TRUE,TRUE
1,"detect-chase","05/17/2022","A107RJSS561Y7R",23,153784,3331,"284","mirror",0,1,"CR",TRUE,TRUE
1,"detect-chase","05/17/2022","A107RJSS561Y7R",24,158157,3370.20000000112,"103","mirror",0,1,"CR",TRUE,TRUE
1,"detect-chase","05/17/2022","A107RJSS561Y7R",25,162248,3089.40000000037,"61","chase",1,1,"Hit",TRUE,TRUE
1,"detect-chase","05/17/2022","A107RJSS561Y7R",26,167650,4400,"182","mirror",0,1,"CR",TRUE,TRUE
1,"detect-chase","05/17/2022","A107RJSS561Y7R",27,172196,3543.19999999925,"171","mirror",0,1,"CR",TRUE,TRUE
1,"detect-chase","05/17/2022","A107RJSS561Y7R",28,175565,2366.30000000075,"252","chase",0,0,"Ms",TRUE,TRUE
1,"detect-chase","05/17/2022","A107RJSS561Y7R",29,180845,4277,"26","chase",1,1,"Hit",TRUE,TRUE
1,"detect-chase","05/17/2022","A107RJSS561Y7R",30,184502,2655.30000000075,"196","chase",1,1,"Hit",TRUE,TRUE
1,"detect-chase","05/17/2022","A107RJSS561Y7R",31,188929,3424.30000000075,"287","chase",1,1,"Hit",TRUE,TRUE
1,"detect-chase","05/17/2022","A107RJSS561Y7R",32,192586,2653.40000000037,"242","chase",1,1,"Hit",TRUE,TRUE
1,"detect-chase","05/17/2022","A107RJSS561Y7R",33,198024,4436.09999999963,"52","mirror",0,1,"CR",TRUE,TRUE
1,"detect-chase","05/17/2022","A107RJSS561Y7R",34,203085,4057.5,"165","mirror",0,1,"CR",TRUE,TRUE
1,"detect-chase","05/17/2022","A107RJSS561Y7R",35,207685,3598.40000000037,"32","chase",0,0,"Ms",TRUE,TRUE
1,"detect-chase","05/17/2022","A107RJSS561Y7R",36,213334,4645.40000000037,"252","mirror",0,1,"CR",TRUE,TRUE
1,"detect-chase","05/17/2022","A107RJSS561Y7R",37,218270,3934.19999999925,"282","mirror",0,1,"CR",TRUE,TRUE
1,"detect-chase","05/17/2022","A107RJSS561Y7R",38,223204,3929.90000000037,"63","chase",1,1,"Hit",TRUE,TRUE
1,"detect-chase","05/17/2022","A107RJSS561Y7R",39,227790,3582.90000000037,"29","mirror",1,0,"FA",TRUE,TRUE
1,"detect-chase","05/17/2022","A107RJSS561Y7R",40,232740,3947.59999999963,"65","chase",1,1,"Hit",TRUE,TRUE
1,"detect-chase","05/17/2022","A107RJSS561Y7R",41,236575,2832.40000000037,"165","chase",1,1,"Hit",TRUE,TRUE
1,"detect-chase","05/17/2022","A107RJSS561Y7R",42,242138,4552.69999999925,"9","chase",1,1,"Hit",TRUE,TRUE
1,"detect-chase","05/17/2022","A107RJSS561Y7R",43,246263,3121.79999999888,"123","mirror",1,0,"FA",TRUE,TRUE
1,"detect-chase","05/17/2022","A107RJSS561Y7R",44,250840,3574.79999999888,"208","mirror",0,1,"CR",TRUE,TRUE
1,"detect-chase","05/17/2022","A107RJSS561Y7R",45,255192,3349,"65","mirror",0,1,"CR",TRUE,TRUE
1,"detect-chase","05/17/2022","A107RJSS561Y7R",46,260821,4625,"251","mirror",1,0,"FA",TRUE,TRUE
1,"detect-chase","05/17/2022","A107RJSS561Y7R",47,266768,4932.19999999925,"220","mirror",1,0,"FA",TRUE,TRUE
1,"detect-chase","05/17/2022","A107RJSS561Y7R",48,272974,5198.5,"203","chase",0,0,"Ms",TRUE,TRUE
1,"detect-chase","05/17/2022","A107RJSS561Y7R",49,278175,4191.90000000037,"13","chase",1,1,"Hit",TRUE,TRUE
1,"detect-chase","05/17/2022","A107RJSS561Y7R",50,283832,4655.29999999888,"103","chase",1,1,"Hit",TRUE,TRUE
1,"detect-chase","05/17/2022","A107RJSS561Y7R",51,289541,4705.59999999963,"20","mirror",0,1,"CR",TRUE,TRUE
1,"detect-chase","05/17/2022","A107RJSS561Y7R",52,294900,4356.40000000037,"133","chase",1,1,"Hit",TRUE,TRUE
1,"detect-chase","05/17/2022","A107RJSS561Y7R",53,300552,4649.70000000112,"13","mirror",0,1,"CR",TRUE,TRUE
1,"detect-chase","05/17/2022","A107RJSS561Y7R",54,306252,4697.09999999963,"173","chase",0,0,"Ms",TRUE,TRUE
1,"detect-chase","05/17/2022","A107RJSS561Y7R",55,311872,4606.09999999963,"210","mirror",0,1,"CR",TRUE,TRUE
1,"detect-chase","05/17/2022","A107RJSS561Y7R",56,316309,3433.80000000075,"43","chase",1,1,"Hit",TRUE,TRUE
1,"detect-chase","05/17/2022","A107RJSS561Y7R",57,321983,4671.89999999851,"30","mirror",1,0,"FA",TRUE,TRUE
1,"detect-chase","05/17/2022","A107RJSS561Y7R",58,327653,4659.59999999963,"8","mirror",0,1,"CR",TRUE,TRUE
1,"detect-chase","05/17/2022","A107RJSS561Y7R",59,332220,3564.29999999888,"187","mirror",1,0,"FA",TRUE,TRUE
1,"detect-chase","05/17/2022","A107RJSS561Y7R",60,335974,2733,"171","chase",1,1,"Hit",TRUE,TRUE
1,"detect-chase","05/17/2022","A107RJSS561Y7R",61,341688,4698.90000000037,"289","chase",1,1,"Hit",TRUE,TRUE
1,"detect-chase","05/17/2022","A107RJSS561Y7R",62,346726,4035,"287","mirror",0,1,"CR",TRUE,TRUE
1,"detect-chase","05/17/2022","A107RJSS561Y7R",63,352062,4325.79999999888,"55","mirror",0,1,"CR",TRUE,TRUE
1,"detect-chase","05/17/2022","A107RJSS561Y7R",64,356115,3050.09999999963,"5","chase",1,1,"Hit",TRUE,TRUE
1,"detect-chase","05/17/2022","A107RJSS561Y7R",65,361231,4114.5,"148","chase",0,0,"Ms",TRUE,TRUE
1,"detect-chase","05/17/2022","A107RJSS561Y7R",66,367357,5122.69999999925,"108","mirror",0,1,"CR",TRUE,TRUE
1,"detect-chase","05/17/2022","A107RJSS561Y7R",67,372909,4549.69999999925,"286","mirror",1,0,"FA",TRUE,TRUE
1,"detect-chase","05/17/2022","A107RJSS561Y7R",68,378256,4336.20000000112,"203","mirror",0,1,"CR",TRUE,TRUE
1,"detect-chase","05/17/2022","A107RJSS561Y7R",69,384248,4978.10000000149,"284","chase",1,1,"Hit",TRUE,TRUE
1,"detect-chase","05/17/2022","A107RJSS561Y7R",70,388177,2924.90000000037,"159","chase",1,1,"Hit",TRUE,TRUE
1,"detect-chase","05/17/2022","A107RJSS561Y7R",71,391818,2627.5,"84","chase",1,1,"Hit",TRUE,TRUE
1,"detect-chase","05/17/2022","A107RJSS561Y7R",72,396211,3390.79999999888,"39","mirror",1,0,"FA",TRUE,TRUE
1,"detect-chase","05/17/2022","A107RJSS561Y7R",73,401653,4439.40000000037,"63","mirror",0,1,"CR",TRUE,TRUE
1,"detect-chase","05/17/2022","A107RJSS561Y7R",74,407270,4615.5,"126","mirror",0,1,"CR",TRUE,TRUE
1,"detect-chase","05/17/2022","A107RJSS561Y7R",75,412852,4579,"228","mirror",0,1,"CR",TRUE,TRUE
1,"detect-chase","05/17/2022","A107RJSS561Y7R",76,417893,4031.29999999888,"288","mirror",0,1,"CR",TRUE,TRUE
1,"detect-chase","05/17/2022","A107RJSS561Y7R",77,424262,5366.29999999888,"94","mirror",0,1,"CR",TRUE,TRUE
1,"detect-chase","05/17/2022","A107RJSS561Y7R",78,429900,4631.90000000037,"193","mirror",0,1,"CR",TRUE,TRUE
1,"detect-chase","05/17/2022","A107RJSS561Y7R",79,435441,4537.90000000037,"228","chase",0,0,"Ms",TRUE,TRUE
1,"detect-chase","05/17/2022","A107RJSS561Y7R",80,440963,4513.79999999888,"16","mirror",0,1,"CR",TRUE,TRUE
1,"detect-chase","05/17/2022","A107RJSS561Y7R",81,445110,3144.5,"116","chase",1,1,"Hit",TRUE,TRUE
1,"detect-chase","05/17/2022","A107RJSS561Y7R",82,447946,1834.09999999963,"200","mirror",1,0,"FA",TRUE,TRUE
1,"detect-chase","05/17/2022","A107RJSS561Y7R",83,453742,4791.40000000037,"276","mirror",1,0,"FA",TRUE,TRUE
1,"detect-chase","05/17/2022","A107RJSS561Y7R",84,459294,4549.69999999925,"17","chase",0,0,"Ms",TRUE,TRUE
1,"detect-chase","05/17/2022","A107RJSS561Y7R",85,463519,3216.70000000112,"187","chase",1,1,"Hit",TRUE,TRUE
1,"detect-chase","05/17/2022","A107RJSS561Y7R",86,468907,4384.30000000075,"200","chase",1,1,"Hit",TRUE,TRUE
1,"detect-chase","05/17/2022","A107RJSS561Y7R",87,474443,4534,"133","mirror",0,1,"CR",TRUE,TRUE
1,"detect-chase","05/17/2022","A107RJSS561Y7R",88,478536,3090.5,"282","chase",1,1,"Hit",TRUE,TRUE
1,"detect-chase","05/17/2022","A107RJSS561Y7R",89,484541,5002.40000000037,"69","mirror",1,0,"FA",TRUE,TRUE
1,"detect-chase","05/17/2022","A107RJSS561Y7R",90,490220,4673,"253","chase",1,1,"Hit",TRUE,TRUE
1,"detect-chase","05/17/2022","A107RJSS561Y7R",91,495995,4767.60000000149,"253","mirror",1,0,"FA",TRUE,TRUE
1,"detect-chase","05/17/2022","A107RJSS561Y7R",92,501692,4695.30000000075,"179","chase",1,1,"Hit",TRUE,TRUE
1,"detect-chase","05/17/2022","A107RJSS561Y7R",93,507562,4867.80000000075,"276","chase",1,1,"Hit",TRUE,TRUE
1,"detect-chase","05/17/2022","A107RJSS561Y7R",94,515967,7397.5,"92","mirror",1,0,"FA",TRUE,TRUE
1,"detect-chase","05/17/2022","A107RJSS561Y7R",95,521836,4866.70000000112,"279","mirror",1,0,"FA",TRUE,TRUE
1,"detect-chase","05/17/2022","A107RJSS561Y7R",96,527746,4907,"176","mirror",1,0,"FA",TRUE,TRUE
1,"detect-chase","05/17/2022","A107RJSS561Y7R",97,533914,5165.10000000149,"173","mirror",0,1,"CR",TRUE,TRUE
1,"detect-chase","05/17/2022","A107RJSS561Y7R",98,540030,5104.69999999925,"33","mirror",0,1,"CR",TRUE,TRUE
1,"detect-chase","05/17/2022","A107RJSS561Y7R",99,545940,4906.40000000037,"84","mirror",0,1,"CR",TRUE,TRUE
1,"detect-chase","05/17/2022","A107RJSS561Y7R",100,551644,4691.19999999925,"279","chase",1,1,"Hit",TRUE,TRUE
1,"detect-chase","05/17/2022","A107RJSS561Y7R",101,557399,4739.79999999888,"11","mirror",1,0,"FA",TRUE,TRUE
1,"detect-chase","05/17/2022","A107RJSS561Y7R",102,562805,4392.5,"141","mirror",1,0,"FA",TRUE,TRUE
1,"detect-chase","05/17/2022","A107RJSS561Y7R",103,568174,4365.59999999963,"266","chase",1,1,"Hit",TRUE,TRUE
1,"detect-chase","05/17/2022","A107RJSS561Y7R",104,573715,4538.80000000075,"295","mirror",1,0,"FA",TRUE,TRUE
1,"detect-chase","05/17/2022","A107RJSS561Y7R",105,578448,3730.29999999888,"239","chase",1,1,"Hit",TRUE,TRUE
1,"detect-chase","05/17/2022","A107RJSS561Y7R",106,582836,3386.5,"254","chase",1,1,"Hit",TRUE,TRUE
1,"detect-chase","05/17/2022","A107RJSS561Y7R",107,588226,4387.30000000075,"20","chase",1,1,"Hit",TRUE,TRUE
1,"detect-chase","05/17/2022","A107RJSS561Y7R",108,594461,5232.79999999888,"235","mirror",1,0,"FA",TRUE,TRUE
1,"detect-chase","05/17/2022","A107RJSS561Y7R",109,599235,3771.5,"17","mirror",1,0,"FA",TRUE,TRUE
1,"detect-chase","05/17/2022","A107RJSS561Y7R",110,603988,3750.90000000037,"242","mirror",1,0,"FA",TRUE,TRUE
1,"detect-chase","05/17/2022","A107RJSS561Y7R",111,608856,3865.09999999963,"245","mirror",1,0,"FA",TRUE,TRUE
1,"detect-chase","05/17/2022","A107RJSS561Y7R",112,611036,1177.59999999963,"235","chase",1,1,"Hit",TRUE,TRUE
1,"detect-chase","05/17/2022","A107RJSS561Y7R",113,616304,4264.90000000037,"10","chase",0,0,"Ms",TRUE,TRUE
1,"detect-chase","05/17/2022","A107RJSS561Y7R",114,620270,2962,"254","mirror",0,1,"CR",TRUE,TRUE
1,"detect-chase","05/17/2022","A107RJSS561Y7R",115,624333,3062.09999999963,"239","mirror",0,1,"CR",TRUE,TRUE
1,"detect-chase","05/17/2022","A107RJSS561Y7R",116,629896,4559.5,"266","mirror",0,1,"CR",TRUE,TRUE
1,"detect-chase","05/17/2022","A107RJSS561Y7R",117,635214,4305.09999999963,"46","chase",1,1,"Hit",TRUE,TRUE
1,"detect-chase","05/17/2022","A107RJSS561Y7R",118,640411,4194.20000000112,"255","mirror",1,0,"FA",TRUE,TRUE
1,"detect-chase","05/17/2022","A107RJSS561Y7R",119,646042,4628.70000000112,"95","mirror",0,1,"CR",TRUE,TRUE
1,"detect-chase","05/17/2022","A107RJSS561Y7R",120,649707,2653,"281","chase",1,1,"Hit",TRUE,TRUE
1,"detect-chase","05/17/2022","A107RJSS561Y7R",121,653213,2503.79999999888,"255","chase",1,1,"Hit",TRUE,TRUE
1,"detect-chase","05/17/2022","A107RJSS561Y7R",122,657538,3321.5,"45","chase",0,0,"Ms",TRUE,TRUE
1,"detect-chase","05/17/2022","A107RJSS561Y7R",123,663081,4541.29999999888,"176","chase",0,0,"Ms",TRUE,TRUE
1,"detect-chase","05/17/2022","A107RJSS561Y7R",124,667133,3042.19999999925,"186","chase",1,1,"Hit",TRUE,TRUE
1,"detect-chase","05/17/2022","A107RJSS561Y7R",125,670504,2368.89999999851,"96","chase",1,1,"Hit",TRUE,TRUE
1,"detect-chase","05/17/2022","A107RJSS561Y7R",126,675946,4440,"188","mirror",0,1,"CR",TRUE,TRUE
1,"detect-chase","05/17/2022","A107RJSS561Y7R",127,680415,3466.19999999925,"30","chase",0,0,"Ms",TRUE,TRUE
1,"detect-chase","05/17/2022","A107RJSS561Y7R",128,686113,4695.09999999963,"95","chase",0,0,"Ms",TRUE,TRUE
1,"detect-chase","05/17/2022","A107RJSS561Y7R",129,689992,2863.19999999925,"39","chase",1,1,"Hit",TRUE,TRUE
1,"detect-chase","05/17/2022","A107RJSS561Y7R",130,695420,4413.89999999851,"34","chase",1,1,"Hit",TRUE,TRUE
1,"detect-chase","05/17/2022","A107RJSS561Y7R",131,700946,4524.09999999963,"11","chase",1,1,"Hit",TRUE,TRUE
1,"detect-chase","05/17/2022","A107RJSS561Y7R",132,706561,4612.69999999925,"286","chase",0,0,"Ms",TRUE,TRUE
1,"detect-chase","05/17/2022","A107RJSS561Y7R",133,710241,2677.19999999925,"150","mirror",0,1,"CR",TRUE,TRUE
1,"detect-chase","05/17/2022","A107RJSS561Y7R",134,714599,3355.80000000075,"140","mirror",1,0,"FA",TRUE,TRUE
1,"detect-chase","05/17/2022","A107RJSS561Y7R",135,717545,1943.69999999925,"193","chase",1,1,"Hit",TRUE,TRUE
1,"detect-chase","05/17/2022","A107RJSS561Y7R",136,721781,3233.10000000149,"196","mirror",1,0,"FA",TRUE,TRUE
1,"detect-chase","05/17/2022","A107RJSS561Y7R",137,726433,3644.5,"124","mirror",0,1,"CR",TRUE,TRUE
1,"detect-chase","05/17/2022","A107RJSS561Y7R",138,732165,4729.69999999925,"281","mirror",0,1,"CR",TRUE,TRUE
1,"detect-chase","05/17/2022","A107RJSS561Y7R",139,737343,4173.90000000037,"180","mirror",0,1,"CR",TRUE,TRUE
1,"detect-chase","05/17/2022","A107RJSS561Y7R",140,742501,4156.5,"26","mirror",0,1,"CR",TRUE,TRUE
1,"detect-chase","05/17/2022","A107RJSS561Y7R",141,746584,3080.80000000075,"272","chase",0,0,"Ms",TRUE,TRUE
1,"detect-chase","05/17/2022","A107RJSS561Y7R",142,751992,4403.80000000075,"126","chase",0,0,"Ms",TRUE,TRUE
1,"detect-chase","05/17/2022","A107RJSS561Y7R",143,757842,4847.60000000149,"186","mirror",0,1,"CR",TRUE,TRUE
1,"detect-chase","05/17/2022","A107RJSS561Y7R",144,763814,4961.20000000112,"210","chase",1,1,"Hit",TRUE,TRUE
1,"detect-chase","05/17/2022","A107RJSS561Y7R",145,769810,4992.19999999925,"10","mirror",0,1,"CR",TRUE,TRUE
1,"detect-chase","05/17/2022","A107RJSS561Y7R",146,777467,6644,"9","mirror",0,1,"CR",TRUE,TRUE
1,"detect-chase","05/17/2022","A107RJSS561Y7R",147,783048,4566.79999999888,"272","mirror",0,1,"CR",TRUE,TRUE
1,"detect-chase","05/17/2022","A107RJSS561Y7R",148,785188,1128.90000000037,"55","chase",0,0,"Ms",TRUE,TRUE
1,"detect-chase","05/17/2022","A107RJSS561Y7R",149,787771,1581.09999999963,"295","chase",0,0,"Ms",TRUE,TRUE
1,"detect-chase","05/17/2022","A107RJSS561Y7R",150,790240,1465.59999999963,"8","chase",0,0,"Ms",TRUE,TRUE
1,"detect-chase","05/17/2022","A107RJSS561Y7R",151,793439,2196.10000000149,"234","mirror",0,1,"CR",TRUE,TRUE
1,"detect-chase","05/17/2022","A107RJSS561Y7R",152,797202,2759.80000000075,"124","chase",1,1,"Hit",TRUE,TRUE
1,"detect-chase","05/17/2022","A107RJSS561Y7R",153,802738,4531.5,"104","mirror",0,1,"CR",TRUE,TRUE
1,"detect-chase","05/17/2022","A107RJSS561Y7R",154,807956,4215.89999999851,"76","mirror",0,1,"CR",TRUE,TRUE
1,"detect-chase","05/17/2022","A107RJSS561Y7R",155,813942,4982.80000000075,"116","mirror",0,1,"CR",TRUE,TRUE
1,"detect-chase","05/17/2022","A107RJSS561Y7R",156,819197,4237.40000000037,"201","mirror",0,1,"CR",TRUE,TRUE
1,"detect-chase","05/17/2022","A107RJSS561Y7R",157,824612,4411.80000000075,"69","chase",1,1,"Hit",TRUE,TRUE
1,"detect-chase","05/17/2022","A107RJSS561Y7R",158,830246,4616.30000000075,"16","chase",0,0,"Ms",TRUE,TRUE
1,"detect-chase","05/17/2022","A107RJSS561Y7R",159,835887,4638.5,"148","mirror",0,1,"CR",TRUE,TRUE
1,"detect-chase","05/17/2022","A107RJSS561Y7R",160,841508,4618.60000000149,"202","mirror",0,1,"CR",TRUE,TRUE
1,"detect-chase","05/17/2022","A107RJSS561Y7R",161,846270,3745.40000000037,"43","mirror",1,0,"FA",TRUE,TRUE
1,"detect-chase","05/17/2022","A107RJSS561Y7R",162,849045,1758.29999999888,"36","chase",1,1,"Hit",TRUE,TRUE
1,"detect-chase","05/17/2022","A107RJSS561Y7R",163,853281,3233.10000000149,"105","mirror",1,0,"FA",TRUE,TRUE
1,"detect-chase","05/17/2022","A107RJSS561Y7R",164,859105,4821.90000000037,"188","chase",0,0,"Ms",TRUE,TRUE
1,"detect-chase","05/17/2022","A107RJSS561Y7R",165,865781,5673.10000000149,"285","mirror",0,1,"CR",TRUE,TRUE
1,"detect-chase","05/17/2022","A107RJSS561Y7R",166,871357,4574,"245","chase",1,1,"Hit",TRUE,TRUE
1,"detect-chase","05/17/2022","A107RJSS561Y7R",167,876906,4531.29999999888,"179","mirror",0,1,"CR",TRUE,TRUE
1,"detect-chase","05/17/2022","A107RJSS561Y7R",168,879592,1683.5,"92","chase",1,1,"Hit",TRUE,TRUE
1,"detect-chase","05/17/2022","A107RJSS561Y7R",169,883714,3119.69999999925,"150","chase",1,1,"Hit",TRUE,TRUE
1,"detect-chase","05/17/2022","A107RJSS561Y7R",170,889424,4707.29999999888,"180","chase",0,0,"Ms",TRUE,TRUE
1,"detect-chase","05/17/2022","A107RJSS561Y7R",171,894149,3717.59999999963,"297","chase",1,1,"Hit",TRUE,TRUE
1,"detect-chase","05/17/2022","A107RJSS561Y7R",172,897846,2694.80000000075,"251","chase",1,1,"Hit",TRUE,TRUE
1,"detect-chase","05/17/2022","A107RJSS561Y7R",173,901371,2521.59999999963,"141","chase",1,1,"Hit",TRUE,TRUE
1,"detect-chase","05/17/2022","A107RJSS561Y7R",174,905531,3143.69999999925,"108","chase",1,1,"Hit",TRUE,TRUE
1,"detect-chase","05/17/2022","A107RJSS561Y7R",175,911317,4778.79999999888,"289","mirror",0,1,"CR",TRUE,TRUE
1,"detect-chase","05/17/2022","A107RJSS561Y7R",176,916388,4068.80000000075,"33","chase",1,1,"Hit",TRUE,TRUE
1,"detect-chase","05/17/2022","A107RJSS561Y7R",177,920336,2944.90000000037,"52","chase",1,1,"Hit",TRUE,TRUE
1,"detect-chase","05/17/2022","A107RJSS561Y7R",178,924381,3032.39999999851,"32","mirror",1,0,"FA",TRUE,TRUE
1,"detect-chase","05/17/2022","A107RJSS561Y7R",179,928271,2887.30000000075,"105","chase",1,1,"Hit",TRUE,TRUE
1,"detect-chase","05/17/2022","A107RJSS561Y7R",180,933309,4034.59999999963,"36","mirror",0,1,"CR",TRUE,TRUE
1,"detect-chase","05/17/2022","A107RJSS561Y7R",181,938660,4347.30000000075,"29","chase",0,0,"Ms",TRUE,TRUE
1,"detect-chase","05/17/2022","A107RJSS561Y7R",182,948530,8868.09999999963,"61","mirror",0,1,"CR",FALSE,TRUE
1,"detect-chase","05/17/2022","A107RJSS561Y7R",183,950795,1257.40000000037,"123","chase",1,1,"Hit",TRUE,TRUE
1,"detect-chase","05/17/2022","A107RJSS561Y7R",184,956563,4765.80000000075,"5","mirror",0,1,"CR",TRUE,TRUE
1,"detect-chase","05/17/2022","A107RJSS561Y7R",185,960902,3336.19999999925,"208","chase",1,1,"Hit",TRUE,TRUE
1,"detect-chase","05/17/2022","A107RJSS561Y7R",186,965901,3995.59999999963,"132","mirror",0,1,"CR",TRUE,TRUE
1,"detect-chase","05/17/2022","A107RJSS561Y7R",187,969522,2619,"182","chase",0,0,"Ms",TRUE,TRUE
1,"detect-chase","05/17/2022","A107RJSS561Y7R",188,974979,4446.80000000075,"47","chase",1,1,"Hit",TRUE,TRUE
1,"detect-chase","05/17/2022","A107RJSS561Y7R",189,980516,4535.19999999925,"201","chase",0,0,"Ms",TRUE,TRUE
1,"detect-chase","05/17/2022","A107RJSS561Y7R",190,983434,1910.09999999963,"234","chase",1,1,"Hit",TRUE,TRUE
1,"detect-chase","05/17/2022","A107RJSS561Y7R",191,987191,2754.40000000037,"220","chase",1,1,"Hit",TRUE,TRUE
1,"detect-chase","05/17/2022","A107RJSS561Y7R",192,992887,4685.29999999888,"202","chase",1,1,"Hit",TRUE,TRUE
1,"detect-chase","05/17/2022","A107RJSS561Y7R",193,995875,1985.09999999963,"94","chase",1,1,"Hit",TRUE,TRUE
1,"detect-chase","05/17/2022","A107RJSS561Y7R",194,999324,2439,"285","chase",1,1,"Hit",TRUE,TRUE
1,"detect-chase","05/17/2022","A107RJSS561Y7R",195,1002312,1985.80000000075,"192","mirror",1,0,"FA",TRUE,TRUE
1,"detect-chase","05/17/2022","A107RJSS561Y7R",196,1006970,3655.30000000075,"288","chase",1,1,"Hit",TRUE,TRUE
1,"detect-chase","05/17/2022","A107RJSS561Y7R",197,1010631,2657.69999999925,"132","chase",1,1,"Hit",TRUE,TRUE
1,"detect-chase","05/17/2022","A107RJSS561Y7R",198,1015688,4055.30000000075,"159","mirror",0,1,"CR",TRUE,TRUE
1,"detect-chase","05/17/2022","A107RJSS561Y7R",199,1021330,4639,"297","mirror",0,1,"CR",TRUE,TRUE
1,"detect-chase","05/17/2022","A107RJSS561Y7R",200,1025133,2789.69999999925,"140","chase",1,1,"Hit",TRUE,TRUE
1,"detect-chase","05/17/2022","A10BH9PYCYUKDJ",1,132899,2660.09999999998,"191","chase",0,0,"Ms",TRUE,FALSE
1,"detect-chase","05/17/2022","A10BH9PYCYUKDJ",2,139364,4457.69999999995,"180","chase",1,1,"Hit",TRUE,FALSE
1,"detect-chase","05/17/2022","A10BH9PYCYUKDJ",3,144530,3158.69999999995,"119","mirror",0,1,"CR",TRUE,FALSE
1,"detect-chase","05/17/2022","A10BH9PYCYUKDJ",4,150033,3497.30000000005,"119","chase",1,1,"Hit",TRUE,FALSE
1,"detect-chase","05/17/2022","A10BH9PYCYUKDJ",5,155075,3030.70000000007,"24","chase",1,1,"Hit",TRUE,FALSE
1,"detect-chase","05/17/2022","A10BH9PYCYUKDJ",6,160519,3437.09999999998,"237","chase",1,1,"Hit",TRUE,FALSE
1,"detect-chase","05/17/2022","A10BH9PYCYUKDJ",7,165289,2762.69999999995,"24","mirror",0,1,"CR",TRUE,FALSE
1,"detect-chase","05/17/2022","A10BH9PYCYUKDJ",8,170591,3296.29999999993,"237","mirror",1,0,"FA",TRUE,FALSE
1,"detect-chase","05/17/2022","A10BH9PYCYUKDJ",9,177490,4891.60000000009,"191","mirror",0,1,"CR",TRUE,FALSE
1,"detect-chase","05/17/2022","A10BH9PYCYUKDJ",10,183387,3891.5,"180","mirror",0,1,"CR",TRUE,FALSE
1,"detect-chase","05/17/2022","A10BH9PYCYUKDJ",11,188178,2785.19999999995,"278","mirror",1,0,"FA",TRUE,FALSE
1,"detect-chase","05/17/2022","A10BH9PYCYUKDJ",12,194118,3934,"278","chase",1,1,"Hit",TRUE,FALSE
1,"detect-chase","05/17/2022","A10BH9PYCYUKDJ",13,202325,3193.30000000005,"254","chase",0,0,"Ms",TRUE,FALSE
1,"detect-chase","05/17/2022","A10BH9PYCYUKDJ",14,207537,4206.29999999993,"40","chase",0,0,"Ms",TRUE,FALSE
1,"detect-chase","05/17/2022","A10BH9PYCYUKDJ",15,212871,4330.59999999998,"240","mirror",1,0,"FA",TRUE,FALSE
1,"detect-chase","05/17/2022","A10BH9PYCYUKDJ",16,217549,3673.19999999995,"162","mirror",0,1,"CR",TRUE,FALSE
1,"detect-chase","05/17/2022","A10BH9PYCYUKDJ",17,223122,4567.69999999995,"121","mirror",1,0,"FA",TRUE,FALSE
1,"detect-chase","05/17/2022","A10BH9PYCYUKDJ",18,228699,4573.29999999993,"177","mirror",0,1,"CR",TRUE,FALSE
1,"detect-chase","05/17/2022","A10BH9PYCYUKDJ",19,233029,3320.30000000005,"239","mirror",0,1,"CR",TRUE,FALSE
1,"detect-chase","05/17/2022","A10BH9PYCYUKDJ",20,237622,3588.90000000002,"114","chase",1,1,"Hit",TRUE,FALSE
1,"detect-chase","05/17/2022","A10BH9PYCYUKDJ",21,243177,4549.40000000002,"275","mirror",0,1,"CR",TRUE,FALSE
1,"detect-chase","05/17/2022","A10BH9PYCYUKDJ",22,248741,4559.19999999995,"225","chase",0,0,"Ms",TRUE,FALSE
1,"detect-chase","05/17/2022","A10BH9PYCYUKDJ",23,254306,4560.59999999998,"115","chase",1,1,"Hit",TRUE,FALSE
1,"detect-chase","05/17/2022","A10BH9PYCYUKDJ",24,259443,4131.09999999998,"165","chase",0,0,"Ms",TRUE,FALSE
1,"detect-chase","05/17/2022","A10BH9PYCYUKDJ",25,263197,2749.10000000009,"256","mirror",0,1,"CR",TRUE,FALSE
1,"detect-chase","05/17/2022","A10BH9PYCYUKDJ",26,268198,3996,"118","mirror",0,1,"CR",TRUE,FALSE
1,"detect-chase","05/17/2022","A10BH9PYCYUKDJ",27,272670,3452.69999999995,"16","mirror",0,1,"CR",TRUE,FALSE
1,"detect-chase","05/17/2022","A10BH9PYCYUKDJ",28,276754,3078.90000000002,"240","chase",1,1,"Hit",TRUE,FALSE
1,"detect-chase","05/17/2022","A10BH9PYCYUKDJ",29,282391,4632.40000000002,"262","mirror",0,1,"CR",TRUE,FALSE
1,"detect-chase","05/17/2022","A10BH9PYCYUKDJ",30,288137,4741.40000000002,"101","chase",0,0,"Ms",TRUE,FALSE
1,"detect-chase","05/17/2022","A10BH9PYCYUKDJ",31,293737,4594.80000000005,"252","mirror",0,1,"CR",TRUE,FALSE
1,"detect-chase","05/17/2022","A10BH9PYCYUKDJ",32,299181,4440,"189","mirror",0,1,"CR",TRUE,FALSE
1,"detect-chase","05/17/2022","A10BH9PYCYUKDJ",33,304748,4562.40000000002,"247","mirror",1,0,"FA",TRUE,FALSE
1,"detect-chase","05/17/2022","A10BH9PYCYUKDJ",34,309410,3656.80000000005,"42","mirror",1,0,"FA",TRUE,FALSE
1,"detect-chase","05/17/2022","A10BH9PYCYUKDJ",35,313809,3394.09999999998,"140","chase",1,1,"Hit",TRUE,FALSE
1,"detect-chase","05/17/2022","A10BH9PYCYUKDJ",36,319064,4249.59999999998,"61","mirror",0,1,"CR",TRUE,FALSE
1,"detect-chase","05/17/2022","A10BH9PYCYUKDJ",37,322953,2884.90000000002,"31","mirror",1,0,"FA",TRUE,FALSE
1,"detect-chase","05/17/2022","A10BH9PYCYUKDJ",38,327405,3447.69999999995,"300","mirror",1,0,"FA",TRUE,FALSE
1,"detect-chase","05/17/2022","A10BH9PYCYUKDJ",39,332926,4517.5,"159","chase",0,0,"Ms",TRUE,FALSE
1,"detect-chase","05/17/2022","A10BH9PYCYUKDJ",40,338236,4304.40000000002,"183","chase",0,0,"Ms",TRUE,FALSE
1,"detect-chase","05/17/2022","A10BH9PYCYUKDJ",41,343665,4423.70000000007,"12","mirror",0,1,"CR",TRUE,FALSE
1,"detect-chase","05/17/2022","A10BH9PYCYUKDJ",42,348764,4095,"159","mirror",0,1,"CR",TRUE,FALSE
1,"detect-chase","05/17/2022","A10BH9PYCYUKDJ",43,353279,3510.40000000002,"195","mirror",1,0,"FA",TRUE,FALSE
1,"detect-chase","05/17/2022","A10BH9PYCYUKDJ",44,357104,2809.40000000002,"32","mirror",0,1,"CR",TRUE,FALSE
1,"detect-chase","05/17/2022","A10BH9PYCYUKDJ",45,360995,2884.29999999993,"4","chase",1,1,"Hit",TRUE,FALSE
1,"detect-chase","05/17/2022","A10BH9PYCYUKDJ",46,364713,2692.59999999998,"131","chase",1,1,"Hit",TRUE,FALSE
1,"detect-chase","05/17/2022","A10BH9PYCYUKDJ",47,368930,3210.40000000002,"21","mirror",0,1,"CR",TRUE,FALSE
1,"detect-chase","05/17/2022","A10BH9PYCYUKDJ",48,372432,2497.59999999998,"95","chase",1,1,"Hit",TRUE,FALSE
1,"detect-chase","05/17/2022","A10BH9PYCYUKDJ",49,376575,3138.5,"207","chase",0,0,"Ms",TRUE,FALSE
1,"detect-chase","05/17/2022","A10BH9PYCYUKDJ",50,382147,4560.59999999998,"40","mirror",0,1,"CR",TRUE,FALSE
1,"detect-chase","05/17/2022","A10BH9PYCYUKDJ",51,386099,2947.59999999998,"58","mirror",0,1,"CR",TRUE,FALSE
1,"detect-chase","05/17/2022","A10BH9PYCYUKDJ",52,390311,3207.40000000002,"28","mirror",0,1,"CR",TRUE,FALSE
1,"detect-chase","05/17/2022","A10BH9PYCYUKDJ",53,394628,3311.30000000005,"6","chase",1,1,"Hit",TRUE,FALSE
1,"detect-chase","05/17/2022","A10BH9PYCYUKDJ",54,399818,4185.90000000002,"199","mirror",0,1,"CR",TRUE,FALSE
1,"detect-chase","05/17/2022","A10BH9PYCYUKDJ",55,403838,3014,"29","chase",0,0,"Ms",TRUE,FALSE
1,"detect-chase","05/17/2022","A10BH9PYCYUKDJ",56,408453,3610.70000000007,"260","chase",0,0,"Ms",TRUE,FALSE
1,"detect-chase","05/17/2022","A10BH9PYCYUKDJ",57,413039,3579.80000000005,"170","chase",0,0,"Ms",TRUE,FALSE
1,"detect-chase","05/17/2022","A10BH9PYCYUKDJ",58,417626,3582.80000000005,"140","mirror",1,0,"FA",TRUE,FALSE
1,"detect-chase","05/17/2022","A10BH9PYCYUKDJ",59,422601,3969.90000000002,"244","mirror",1,0,"FA",TRUE,FALSE
1,"detect-chase","05/17/2022","A10BH9PYCYUKDJ",60,428155,4549.19999999995,"224","mirror",1,0,"FA",TRUE,FALSE
1,"detect-chase","05/17/2022","A10BH9PYCYUKDJ",61,433888,4728,"183","mirror",1,0,"FA",TRUE,FALSE
1,"detect-chase","05/17/2022","A10BH9PYCYUKDJ",62,438570,3672.59999999998,"105","mirror",0,1,"CR",TRUE,FALSE
1,"detect-chase","05/17/2022","A10BH9PYCYUKDJ",63,443442,3866.70000000007,"114","mirror",0,1,"CR",TRUE,FALSE
1,"detect-chase","05/17/2022","A10BH9PYCYUKDJ",64,447957,3510.20000000007,"12","chase",0,0,"Ms",TRUE,FALSE
1,"detect-chase","05/17/2022","A10BH9PYCYUKDJ",65,452325,3358.90000000002,"53","mirror",0,1,"CR",TRUE,FALSE
1,"detect-chase","05/17/2022","A10BH9PYCYUKDJ",66,457184,3854.39999999991,"152","chase",1,1,"Hit",TRUE,FALSE
1,"detect-chase","05/17/2022","A10BH9PYCYUKDJ",67,462663,4463.09999999998,"256","chase",0,0,"Ms",TRUE,FALSE
1,"detect-chase","05/17/2022","A10BH9PYCYUKDJ",68,467187,3519.5,"236","mirror",0,1,"CR",TRUE,FALSE
1,"detect-chase","05/17/2022","A10BH9PYCYUKDJ",69,471151,2958.90000000002,"115","mirror",0,1,"CR",TRUE,FALSE
1,"detect-chase","05/17/2022","A10BH9PYCYUKDJ",70,476422,4266.09999999998,"217","mirror",0,1,"CR",TRUE,FALSE
1,"detect-chase","05/17/2022","A10BH9PYCYUKDJ",71,480906,3480.19999999995,"167","mirror",0,1,"CR",TRUE,FALSE
1,"detect-chase","05/17/2022","A10BH9PYCYUKDJ",72,485893,3982.89999999991,"225","mirror",0,1,"CR",TRUE,FALSE
1,"detect-chase","05/17/2022","A10BH9PYCYUKDJ",73,490816,3911.19999999995,"252","chase",1,1,"Hit",TRUE,FALSE
1,"detect-chase","05/17/2022","A10BH9PYCYUKDJ",74,496130,4309.80000000005,"137","chase",1,1,"Hit",TRUE,FALSE
1,"detect-chase","05/17/2022","A10BH9PYCYUKDJ",75,501211,4076.60000000009,"143","chase",0,0,"Ms",TRUE,FALSE
1,"detect-chase","05/17/2022","A10BH9PYCYUKDJ",76,505554,3337.5,"53","chase",1,1,"Hit",TRUE,FALSE
1,"detect-chase","05/17/2022","A10BH9PYCYUKDJ",77,510340,3781.5,"75","chase",0,0,"Ms",TRUE,FALSE
1,"detect-chase","05/17/2022","A10BH9PYCYUKDJ",78,515739,4376,"18","mirror",0,1,"CR",TRUE,FALSE
1,"detect-chase","05/17/2022","A10BH9PYCYUKDJ",79,520431,3686.80000000005,"268","mirror",0,1,"CR",TRUE,FALSE
1,"detect-chase","05/17/2022","A10BH9PYCYUKDJ",80,524164,2728.40000000002,"56","chase",0,0,"Ms",TRUE,FALSE
1,"detect-chase","05/17/2022","A10BH9PYCYUKDJ",81,529753,4584.59999999998,"4","mirror",0,1,"CR",TRUE,FALSE
1,"detect-chase","05/17/2022","A10BH9PYCYUKDJ",82,534907,4149.59999999998,"152","mirror",0,1,"CR",TRUE,FALSE
1,"detect-chase","05/17/2022","A10BH9PYCYUKDJ",83,539910,3998.79999999993,"177","chase",1,1,"Hit",TRUE,FALSE
1,"detect-chase","05/17/2022","A10BH9PYCYUKDJ",84,543930,3014.79999999993,"121","chase",0,0,"Ms",TRUE,FALSE
1,"detect-chase","05/17/2022","A10BH9PYCYUKDJ",85,549405,4471.09999999998,"28","chase",1,1,"Hit",TRUE,FALSE
1,"detect-chase","05/17/2022","A10BH9PYCYUKDJ",86,553769,3359.5,"87","chase",0,0,"Ms",TRUE,FALSE
1,"detect-chase","05/17/2022","A10BH9PYCYUKDJ",87,559101,4313.19999999995,"56","mirror",0,1,"CR",TRUE,FALSE
1,"detect-chase","05/17/2022","A10BH9PYCYUKDJ",88,563219,3113.19999999995,"170","mirror",0,1,"CR",TRUE,FALSE
1,"detect-chase","05/17/2022","A10BH9PYCYUKDJ",89,568162,3938.80000000005,"184","chase",0,0,"Ms",TRUE,FALSE
1,"detect-chase","05/17/2022","A10BH9PYCYUKDJ",90,573788,4620.59999999998,"254","mirror",0,1,"CR",TRUE,FALSE
1,"detect-chase","05/17/2022","A10BH9PYCYUKDJ",91,579264,4471,"5","chase",0,0,"Ms",TRUE,FALSE
1,"detect-chase","05/17/2022","A10BH9PYCYUKDJ",92,584878,4609.70000000007,"253","chase",0,0,"Ms",TRUE,FALSE
1,"detect-chase","05/17/2022","A10BH9PYCYUKDJ",93,590966,5083.79999999993,"162","chase",1,1,"Hit",TRUE,FALSE
1,"detect-chase","05/17/2022","A10BH9PYCYUKDJ",94,596229,4257.89999999991,"31","chase",0,0,"Ms",TRUE,FALSE
1,"detect-chase","05/17/2022","A10BH9PYCYUKDJ",95,601564,4330.10000000009,"277","chase",0,0,"Ms",TRUE,FALSE
1,"detect-chase","05/17/2022","A10BH9PYCYUKDJ",96,606921,4352,"94","chase",1,1,"Hit",TRUE,FALSE
1,"detect-chase","05/17/2022","A10BH9PYCYUKDJ",97,612455,4529.89999999991,"233","chase",0,0,"Ms",TRUE,FALSE
1,"detect-chase","05/17/2022","A10BH9PYCYUKDJ",98,618010,4549.69999999995,"181","chase",1,1,"Hit",TRUE,FALSE
1,"detect-chase","05/17/2022","A10BH9PYCYUKDJ",99,623843,4827.5,"300","chase",1,1,"Hit",TRUE,FALSE
1,"detect-chase","05/17/2022","A10BH9PYCYUKDJ",100,628701,3853.70000000019,"157","chase",0,0,"Ms",TRUE,FALSE
1,"detect-chase","05/17/2022","A10BH9PYCYUKDJ",101,635138,5419,"281","mirror",1,0,"FA",TRUE,FALSE
1,"detect-chase","05/17/2022","A10BH9PYCYUKDJ",102,639731,3587.70000000019,"68","chase",0,0,"Ms",TRUE,FALSE
1,"detect-chase","05/17/2022","A10BH9PYCYUKDJ",103,645501,4764.90000000014,"211","mirror",0,1,"CR",TRUE,FALSE
1,"detect-chase","05/17/2022","A10BH9PYCYUKDJ",104,650600,4094.69999999995,"127","chase",0,0,"Ms",TRUE,FALSE
1,"detect-chase","05/17/2022","A10BH9PYCYUKDJ",105,656764,5158.80000000005,"122","chase",0,0,"Ms",TRUE,FALSE
1,"detect-chase","05/17/2022","A10BH9PYCYUKDJ",106,662346,4577.5,"10","chase",0,0,"Ms",TRUE,FALSE
1,"detect-chase","05/17/2022","A10BH9PYCYUKDJ",107,668280,4929.40000000014,"32","chase",1,1,"Hit",TRUE,FALSE
1,"detect-chase","05/17/2022","A10BH9PYCYUKDJ",108,674096,4811.60000000009,"161","mirror",0,1,"CR",TRUE,FALSE
1,"detect-chase","05/17/2022","A10BH9PYCYUKDJ",109,678399,3297.89999999991,"150","mirror",0,1,"CR",TRUE,FALSE
1,"detect-chase","05/17/2022","A10BH9PYCYUKDJ",110,682770,3365.90000000014,"236","chase",1,1,"Hit",TRUE,FALSE
1,"detect-chase","05/17/2022","A10BH9PYCYUKDJ",111,687796,4021.30000000005,"253","mirror",1,0,"FA",TRUE,FALSE
1,"detect-chase","05/17/2022","A10BH9PYCYUKDJ",112,692189,3389.39999999991,"202","chase",0,0,"Ms",TRUE,FALSE
1,"detect-chase","05/17/2022","A10BH9PYCYUKDJ",113,698031,4828,"165","mirror",1,0,"FA",TRUE,FALSE
1,"detect-chase","05/17/2022","A10BH9PYCYUKDJ",114,703187,4151.60000000009,"77","chase",1,1,"Hit",TRUE,FALSE
1,"detect-chase","05/17/2022","A10BH9PYCYUKDJ",115,708994,4801.30000000005,"281","chase",1,1,"Hit",TRUE,FALSE
1,"detect-chase","05/17/2022","A10BH9PYCYUKDJ",116,714543,4545,"75","mirror",0,1,"CR",TRUE,FALSE
1,"detect-chase","05/17/2022","A10BH9PYCYUKDJ",117,720203,4655.39999999991,"147","mirror",1,0,"FA",TRUE,FALSE
1,"detect-chase","05/17/2022","A10BH9PYCYUKDJ",118,724490,3282.19999999995,"18","chase",1,1,"Hit",TRUE,FALSE
1,"detect-chase","05/17/2022","A10BH9PYCYUKDJ",119,728655,3154,"207","mirror",0,1,"CR",TRUE,FALSE
1,"detect-chase","05/17/2022","A10BH9PYCYUKDJ",120,734149,4489.5,"275","chase",1,1,"Hit",TRUE,FALSE
1,"detect-chase","05/17/2022","A10BH9PYCYUKDJ",121,739582,4428.10000000009,"101","mirror",0,1,"CR",TRUE,FALSE
1,"detect-chase","05/17/2022","A10BH9PYCYUKDJ",122,743723,3135.30000000005,"189","chase",0,0,"Ms",TRUE,FALSE
1,"detect-chase","05/17/2022","A10BH9PYCYUKDJ",123,747931,3203.60000000009,"181","mirror",0,1,"CR",TRUE,FALSE
1,"detect-chase","05/17/2022","A10BH9PYCYUKDJ",124,752745,3790,"268","chase",0,0,"Ms",TRUE,FALSE
1,"detect-chase","05/17/2022","A10BH9PYCYUKDJ",125,756932,3183,"33","chase",1,1,"Hit",TRUE,FALSE
1,"detect-chase","05/17/2022","A10BH9PYCYUKDJ",126,761682,3734.40000000014,"94","mirror",0,1,"CR",TRUE,FALSE
1,"detect-chase","05/17/2022","A10BH9PYCYUKDJ",127,765898,3211.79999999981,"125","mirror",0,1,"CR",TRUE,FALSE
1,"detect-chase","05/17/2022","A10BH9PYCYUKDJ",128,771401,4498.60000000009,"129","chase",0,0,"Ms",TRUE,FALSE
1,"detect-chase","05/17/2022","A10BH9PYCYUKDJ",129,776869,4461.5,"194","chase",0,0,"Ms",TRUE,FALSE
1,"detect-chase","05/17/2022","A10BH9PYCYUKDJ",130,783009,5135.80000000005,"218","chase",0,0,"Ms",TRUE,FALSE
1,"detect-chase","05/17/2022","A10BH9PYCYUKDJ",131,789176,5162.29999999981,"218","mirror",0,1,"CR",TRUE,FALSE
1,"detect-chase","05/17/2022","A10BH9PYCYUKDJ",132,794914,4733.19999999995,"299","chase",0,0,"Ms",TRUE,FALSE
1,"detect-chase","05/17/2022","A10BH9PYCYUKDJ",133,798703,2784.89999999991,"299","mirror",1,0,"FA",TRUE,FALSE
1,"detect-chase","05/17/2022","A10BH9PYCYUKDJ",134,804127,4419.5,"105","chase",1,1,"Hit",TRUE,FALSE
1,"detect-chase","05/17/2022","A10BH9PYCYUKDJ",135,809759,4627.19999999995,"67","chase",0,0,"Ms",TRUE,FALSE
1,"detect-chase","05/17/2022","A10BH9PYCYUKDJ",136,815215,4451.19999999995,"276","chase",0,0,"Ms",TRUE,FALSE
1,"detect-chase","05/17/2022","A10BH9PYCYUKDJ",137,820892,4673.09999999986,"61","chase",0,0,"Ms",TRUE,FALSE
1,"detect-chase","05/17/2022","A10BH9PYCYUKDJ",138,826344,4446.20000000019,"276","mirror",0,1,"CR",TRUE,FALSE
1,"detect-chase","05/17/2022","A10BH9PYCYUKDJ",139,832332,4983.70000000019,"247","chase",0,0,"Ms",TRUE,FALSE
1,"detect-chase","05/17/2022","A10BH9PYCYUKDJ",140,837933,4596.5,"157","mirror",1,0,"FA",TRUE,FALSE
1,"detect-chase","05/17/2022","A10BH9PYCYUKDJ",141,843441,4503.5,"29","mirror",0,1,"CR",TRUE,FALSE
1,"detect-chase","05/17/2022","A10BH9PYCYUKDJ",142,848460,4007.80000000005,"150","chase",1,1,"Hit",TRUE,FALSE
1,"detect-chase","05/17/2022","A10BH9PYCYUKDJ",143,854146,4680,"260","mirror",0,1,"CR",TRUE,FALSE
1,"detect-chase","05/17/2022","A10BH9PYCYUKDJ",144,858461,3311.19999999995,"285","mirror",0,1,"CR",TRUE,FALSE
1,"detect-chase","05/17/2022","A10BH9PYCYUKDJ",145,864084,4618.29999999981,"67","mirror",0,1,"CR",TRUE,FALSE
1,"detect-chase","05/17/2022","A10BH9PYCYUKDJ",146,868683,3594.59999999986,"19","mirror",1,0,"FA",TRUE,FALSE
1,"detect-chase","05/17/2022","A10BH9PYCYUKDJ",147,872702,2997.39999999991,"242","mirror",0,1,"CR",TRUE,FALSE
1,"detect-chase","05/17/2022","A10BH9PYCYUKDJ",148,877581,3874.5,"5","mirror",0,1,"CR",TRUE,FALSE
1,"detect-chase","05/17/2022","A10BH9PYCYUKDJ",149,883636,5050.5,"127","mirror",0,1,"CR",TRUE,FALSE
1,"detect-chase","05/17/2022","A10BH9PYCYUKDJ",150,889378,4727,"19","chase",1,1,"Hit",TRUE,FALSE
1,"detect-chase","05/17/2022","A10BH9PYCYUKDJ",151,894871,4486.89999999991,"224","chase",0,0,"Ms",TRUE,FALSE
1,"detect-chase","05/17/2022","A10BH9PYCYUKDJ",152,900556,4679.69999999995,"46","chase",0,0,"Ms",TRUE,FALSE
1,"detect-chase","05/17/2022","A10BH9PYCYUKDJ",153,906315,4754.10000000009,"16","chase",0,0,"Ms",TRUE,FALSE
1,"detect-chase","05/17/2022","A10BH9PYCYUKDJ",154,911757,4437.5,"77","mirror",1,0,"FA",TRUE,FALSE
1,"detect-chase","05/17/2022","A10BH9PYCYUKDJ",155,917220,4458,"167","chase",0,0,"Ms",TRUE,FALSE
1,"detect-chase","05/17/2022","A10BH9PYCYUKDJ",156,923400,5174.30000000005,"249","chase",1,1,"Hit",TRUE,FALSE
1,"detect-chase","05/17/2022","A10BH9PYCYUKDJ",157,928413,4008.89999999991,"143","mirror",1,0,"FA",TRUE,FALSE
1,"detect-chase","05/17/2022","A10BH9PYCYUKDJ",158,933864,4445.50000000012,"169","chase",0,0,"Ms",TRUE,FALSE
1,"detect-chase","05/17/2022","A10BH9PYCYUKDJ",159,938710,3841.5,"20","chase",0,0,"Ms",TRUE,FALSE
1,"detect-chase","05/17/2022","A10BH9PYCYUKDJ",160,945107,5393,"249","mirror",0,1,"CR",TRUE,FALSE
1,"detect-chase","05/17/2022","A10BH9PYCYUKDJ",161,950387,4275.69999999972,"17","chase",0,0,"Ms",TRUE,FALSE
1,"detect-chase","05/17/2022","A10BH9PYCYUKDJ",162,956018,4626.70000000019,"58","chase",0,0,"Ms",TRUE,FALSE
1,"detect-chase","05/17/2022","A10BH9PYCYUKDJ",163,962203,5180.5,"87","mirror",0,1,"CR",TRUE,FALSE
1,"detect-chase","05/17/2022","A10BH9PYCYUKDJ",164,967827,4619.09999999963,"131","mirror",0,1,"CR",TRUE,FALSE
1,"detect-chase","05/17/2022","A10BH9PYCYUKDJ",165,973072,4240,"184","mirror",0,1,"CR",TRUE,FALSE
1,"detect-chase","05/17/2022","A10BH9PYCYUKDJ",166,978657,4580.19999999972,"68","mirror",1,0,"FA",TRUE,FALSE
1,"detect-chase","05/17/2022","A10BH9PYCYUKDJ",167,984428,4766.60000000009,"147","chase",0,0,"Ms",TRUE,FALSE
1,"detect-chase","05/17/2022","A10BH9PYCYUKDJ",168,990091,4658.5,"42","chase",0,0,"Ms",TRUE,FALSE
1,"detect-chase","05/17/2022","A10BH9PYCYUKDJ",169,995483,4387,"239","chase",1,1,"Hit",TRUE,FALSE
1,"detect-chase","05/17/2022","A10BH9PYCYUKDJ",170,1000067,3579.60000000009,"125","chase",1,1,"Hit",TRUE,FALSE
1,"detect-chase","05/17/2022","A10BH9PYCYUKDJ",171,1004678,3605.5,"95","mirror",0,1,"CR",TRUE,FALSE
1,"detect-chase","05/17/2022","A10BH9PYCYUKDJ",172,1010254,4571,"129","mirror",0,1,"CR",TRUE,FALSE
1,"detect-chase","05/17/2022","A10BH9PYCYUKDJ",173,1015702,4443.30000000028,"118","chase",1,1,"Hit",TRUE,FALSE
1,"detect-chase","05/17/2022","A10BH9PYCYUKDJ",174,1021550,4843.79999999981,"161","chase",0,0,"Ms",TRUE,FALSE
1,"detect-chase","05/17/2022","A10BH9PYCYUKDJ",175,1025391,2836.30000000028,"195","chase",0,0,"Ms",TRUE,FALSE
1,"detect-chase","05/17/2022","A10BH9PYCYUKDJ",176,1029293,2896.79999999981,"2","chase",0,0,"Ms",TRUE,FALSE
1,"detect-chase","05/17/2022","A10BH9PYCYUKDJ",177,1034596,4298.69999999972,"211","chase",0,0,"Ms",TRUE,FALSE
1,"detect-chase","05/17/2022","A10BH9PYCYUKDJ",178,1038367,2767.39999999991,"226","mirror",0,1,"CR",TRUE,FALSE
1,"detect-chase","05/17/2022","A10BH9PYCYUKDJ",179,1043006,3634.69999999972,"262","chase",0,0,"Ms",TRUE,FALSE
1,"detect-chase","05/17/2022","A10BH9PYCYUKDJ",180,1048530,4518.70000000019,"242","chase",0,0,"Ms",TRUE,FALSE
1,"detect-chase","05/17/2022","A10BH9PYCYUKDJ",181,1053983,4448.5,"244","chase",0,0,"Ms",TRUE,FALSE
1,"detect-chase","05/17/2022","A10BH9PYCYUKDJ",182,1058751,3764.39999999991,"33","mirror",1,0,"FA",TRUE,FALSE
1,"detect-chase","05/17/2022","A10BH9PYCYUKDJ",183,1063917,4160.5,"122","mirror",0,1,"CR",TRUE,FALSE
1,"detect-chase","05/17/2022","A10BH9PYCYUKDJ",184,1068638,3717.39999999991,"169","mirror",1,0,"FA",TRUE,FALSE
1,"detect-chase","05/17/2022","A10BH9PYCYUKDJ",185,1074288,4645.5,"226","chase",0,0,"Ms",TRUE,FALSE
1,"detect-chase","05/17/2022","A10BH9PYCYUKDJ",186,1078700,3406.70000000019,"199","chase",0,0,"Ms",TRUE,FALSE
1,"detect-chase","05/17/2022","A10BH9PYCYUKDJ",187,1083244,3539.10000000009,"137","mirror",0,1,"CR",TRUE,FALSE
1,"detect-chase","05/17/2022","A10BH9PYCYUKDJ",188,1087625,3361.70000000019,"217","chase",0,0,"Ms",TRUE,FALSE
1,"detect-chase","05/17/2022","A10BH9PYCYUKDJ",189,1093355,4724.39999999991,"285","chase",0,0,"Ms",TRUE,FALSE
1,"detect-chase","05/17/2022","A10BH9PYCYUKDJ",190,1098158,3797.70000000019,"21","chase",0,0,"Ms",TRUE,FALSE
1,"detect-chase","05/17/2022","A10BH9PYCYUKDJ",191,1103020,3857.5,"20","mirror",0,1,"CR",TRUE,FALSE
1,"detect-chase","05/17/2022","A10BH9PYCYUKDJ",192,1108551,4525.89999999991,"194","mirror",1,0,"FA",TRUE,FALSE
1,"detect-chase","05/17/2022","A10BH9PYCYUKDJ",193,1113864,4309,"46","mirror",0,1,"CR",TRUE,FALSE
1,"detect-chase","05/17/2022","A10BH9PYCYUKDJ",194,1118398,3528.59999999963,"10","mirror",0,1,"CR",TRUE,FALSE
1,"detect-chase","05/17/2022","A10BH9PYCYUKDJ",195,1123425,4022.80000000028,"6","mirror",0,1,"CR",TRUE,FALSE
1,"detect-chase","05/17/2022","A10BH9PYCYUKDJ",196,1128593,4163.10000000009,"233","mirror",0,1,"CR",TRUE,FALSE
1,"detect-chase","05/17/2022","A10BH9PYCYUKDJ",197,1134333,4734.80000000028,"2","mirror",1,0,"FA",TRUE,FALSE
1,"detect-chase","05/17/2022","A10BH9PYCYUKDJ",198,1140043,4706,"277","mirror",1,0,"FA",TRUE,FALSE
1,"detect-chase","05/17/2022","A10BH9PYCYUKDJ",199,1144314,3265.70000000019,"202","mirror",0,1,"CR",TRUE,FALSE
1,"detect-chase","05/17/2022","A10BH9PYCYUKDJ",200,1149908,4589.20000000019,"17","mirror",0,1,"CR",TRUE,FALSE
1,"detect-chase","05/17/2022","A10M63DSIGIEDI",1,16707,2881.70000076294,"204","chase",1,1,"Hit",TRUE,FALSE
1,"detect-chase","05/17/2022","A10M63DSIGIEDI",2,20075,1261,"228","mirror",1,0,"FA",TRUE,FALSE
1,"detect-chase","05/17/2022","A10M63DSIGIEDI",3,23175,1052.5,"174","chase",1,1,"Hit",TRUE,FALSE
1,"detect-chase","05/17/2022","A10M63DSIGIEDI",4,26408,1218.80000114441,"204","mirror",0,1,"CR",TRUE,FALSE
1,"detect-chase","05/17/2022","A10M63DSIGIEDI",5,29523,1024.39999961853,"174","mirror",1,0,"FA",TRUE,FALSE
1,"detect-chase","05/17/2022","A10M63DSIGIEDI",6,32355,784.5,"160","mirror",0,1,"CR",TRUE,FALSE
1,"detect-chase","05/17/2022","A10M63DSIGIEDI",7,35409,1029.39999961853,"258","mirror",0,1,"CR",TRUE,FALSE
1,"detect-chase","05/17/2022","A10M63DSIGIEDI",8,38230,808.200000762939,"160","chase",0,0,"Ms",TRUE,FALSE
1,"detect-chase","05/17/2022","A10M63DSIGIEDI",9,41739,1492.09999847412,"167","mirror",1,0,"FA",TRUE,FALSE
1,"detect-chase","05/17/2022","A10M63DSIGIEDI",10,43932,118.39999961853,"167","chase",0,0,"Ms",FALSE,FALSE
1,"detect-chase","05/17/2022","A10M63DSIGIEDI",11,46939,1000.29999923706,"258","chase",1,1,"Hit",TRUE,FALSE
1,"detect-chase","05/17/2022","A10M63DSIGIEDI",12,50236,1272.5,"228","chase",1,1,"Hit",TRUE,FALSE
1,"detect-chase","05/17/2022","A10M63DSIGIEDI",13,55717,1014.19999885559,"92","mirror",1,0,"FA",TRUE,FALSE
1,"detect-chase","05/17/2022","A10M63DSIGIEDI",14,57872,1150.39999961853,"52","mirror",0,1,"CR",TRUE,FALSE
1,"detect-chase","05/17/2022","A10M63DSIGIEDI",15,59766,875.5,"180","mirror",1,0,"FA",TRUE,FALSE
1,"detect-chase","05/17/2022","A10M63DSIGIEDI",16,61413,632,"89","mirror",0,1,"CR",TRUE,FALSE
1,"detect-chase","05/17/2022","A10M63DSIGIEDI",17,63289,871.39999961853,"202","mirror",0,1,"CR",TRUE,FALSE
1,"detect-chase","05/17/2022","A10M63DSIGIEDI",18,64856,561.10000038147,"171","mirror",0,1,"CR",TRUE,FALSE
1,"detect-chase","05/17/2022","A10M63DSIGIEDI",19,66301,437.299999237061,"216","mirror",1,0,"FA",FALSE,FALSE
1,"detect-chase","05/17/2022","A10M63DSIGIEDI",20,67941,629.89999961853,"243","chase",1,1,"Hit",TRUE,FALSE
1,"detect-chase","05/17/2022","A10M63DSIGIEDI",21,69306,308.700000762939,"216","chase",0,0,"Ms",FALSE,FALSE
1,"detect-chase","05/17/2022","A10M63DSIGIEDI",22,70649,338.900001525879,"274","mirror",0,1,"CR",FALSE,FALSE
1,"detect-chase","05/17/2022","A10M63DSIGIEDI",23,76031,4374.29999923706,"31","chase",0,0,"Ms",TRUE,FALSE
1,"detect-chase","05/17/2022","A10M63DSIGIEDI",24,78016,975.89999961853,"70","mirror",0,1,"CR",TRUE,FALSE
1,"detect-chase","05/17/2022","A10M63DSIGIEDI",25,79854,826.60000038147,"218","chase",0,0,"Ms",TRUE,FALSE
1,"detect-chase","05/17/2022","A10M63DSIGIEDI",26,81175,314.099998474121,"55","chase",1,1,"Hit",FALSE,FALSE
1,"detect-chase","05/17/2022","A10M63DSIGIEDI",27,82626,445.300001144409,"224","mirror",1,0,"FA",FALSE,FALSE
1,"detect-chase","05/17/2022","A10M63DSIGIEDI",28,84063,421.5,"272","chase",1,1,"Hit",FALSE,FALSE
1,"detect-chase","05/17/2022","A10M63DSIGIEDI",29,85591,492.39999961853,"248","chase",0,0,"Ms",FALSE,FALSE
1,"detect-chase","05/17/2022","A10M63DSIGIEDI",30,87661,1054.79999923706,"73","chase",1,1,"Hit",TRUE,FALSE
1,"detect-chase","05/17/2022","A10M63DSIGIEDI",31,88943,271.099998474121,"290","chase",1,1,"Hit",FALSE,FALSE
1,"detect-chase","05/17/2022","A10M63DSIGIEDI",32,90703,740.10000038147,"108","mirror",1,0,"FA",TRUE,FALSE
1,"detect-chase","05/17/2022","A10M63DSIGIEDI",33,92003,288.700000762939,"166","chase",0,0,"Ms",FALSE,FALSE
1,"detect-chase","05/17/2022","A10M63DSIGIEDI",34,93498,485.5,"19","mirror",0,1,"CR",FALSE,FALSE
1,"detect-chase","05/17/2022","A10M63DSIGIEDI",35,95356,802.700000762939,"44","mirror",0,1,"CR",TRUE,FALSE
1,"detect-chase","05/17/2022","A10M63DSIGIEDI",36,97074,713.799999237061,"262","mirror",0,1,"CR",TRUE,FALSE
1,"detect-chase","05/17/2022","A10M63DSIGIEDI",37,99058,942.800001144409,"142","mirror",0,1,"CR",TRUE,FALSE
1,"detect-chase","05/17/2022","A10M63DSIGIEDI",38,100730,652.800001144409,"250","chase",0,0,"Ms",TRUE,FALSE
1,"detect-chase","05/17/2022","A10M63DSIGIEDI",39,102712,966.89999961853,"284","mirror",0,1,"CR",TRUE,FALSE
1,"detect-chase","05/17/2022","A10M63DSIGIEDI",40,104452,734.200000762939,"219","mirror",0,1,"CR",TRUE,FALSE
1,"detect-chase","05/17/2022","A10M63DSIGIEDI",41,105612,141.5,"111","chase",0,0,"Ms",FALSE,FALSE
1,"detect-chase","05/17/2022","A10M63DSIGIEDI",42,106675,52.2999992370605,"283","mirror",0,1,"CR",FALSE,FALSE
1,"detect-chase","05/17/2022","A10M63DSIGIEDI",43,107800,95.1000003814697,"24","chase",0,0,"Ms",FALSE,FALSE
1,"detect-chase","05/17/2022","A10M63DSIGIEDI",44,129806,20987.1000003815,"155","mirror",1,0,"FA",FALSE,FALSE
1,"detect-chase","05/17/2022","A10M63DSIGIEDI",45,132220,1398,"49","mirror",1,0,"FA",TRUE,FALSE
1,"detect-chase","05/17/2022","A10M63DSIGIEDI",46,144477,11240.5,"182","mirror",0,1,"CR",FALSE,FALSE
1,"detect-chase","05/17/2022","A10M63DSIGIEDI",47,146551,1060.80000114441,"296","chase",0,0,"Ms",TRUE,FALSE
1,"detect-chase","05/17/2022","A10M63DSIGIEDI",48,148094,525.39999961853,"126","mirror",0,1,"CR",TRUE,FALSE
1,"detect-chase","05/17/2022","A10M63DSIGIEDI",49,149503,374,"223","chase",0,0,"Ms",FALSE,FALSE
1,"detect-chase","05/17/2022","A10M63DSIGIEDI",50,151669,1127.60000038147,"262","chase",1,1,"Hit",TRUE,FALSE
1,"detect-chase","05/17/2022","A10M63DSIGIEDI",51,152999,322.60000038147,"65","mirror",1,0,"FA",FALSE,FALSE
1,"detect-chase","05/17/2022","A10M63DSIGIEDI",52,154762,756.89999961853,"233","chase",1,1,"Hit",TRUE,FALSE
1,"detect-chase","05/17/2022","A10M63DSIGIEDI",53,167404,11639.1999988556,"76","mirror",0,1,"CR",FALSE,FALSE
1,"detect-chase","05/17/2022","A10M63DSIGIEDI",54,170684,2274.30000114441,"187","mirror",1,0,"FA",TRUE,FALSE
1,"detect-chase","05/17/2022","A10M63DSIGIEDI",55,172635,938,"283","chase",1,1,"Hit",TRUE,FALSE
1,"detect-chase","05/17/2022","A10M63DSIGIEDI",56,175142,1490.10000038147,"1","mirror",1,0,"FA",TRUE,FALSE
1,"detect-chase","05/17/2022","A10M63DSIGIEDI",57,178396,2240.20000076294,"163","mirror",1,0,"FA",TRUE,FALSE
1,"detect-chase","05/17/2022","A10M63DSIGIEDI",58,181065,1663,"260","chase",0,0,"Ms",TRUE,FALSE
1,"detect-chase","05/17/2022","A10M63DSIGIEDI",59,183334,1251.69999885559,"111","mirror",0,1,"CR",TRUE,FALSE
1,"detect-chase","05/17/2022","A10M63DSIGIEDI",60,190325,5971.19999885559,"292","chase",0,0,"Ms",TRUE,FALSE
1,"detect-chase","05/17/2022","A10M63DSIGIEDI",61,191972,639.299999237061,"230","mirror",0,1,"CR",TRUE,FALSE
1,"detect-chase","05/17/2022","A10M63DSIGIEDI",62,192994,7.60000038146973,"11","chase",0,0,"Ms",FALSE,FALSE
1,"detect-chase","05/17/2022","A10M63DSIGIEDI",63,194070,71.2999992370605,"61","chase",0,0,"Ms",FALSE,FALSE
1,"detect-chase","05/17/2022","A10M63DSIGIEDI",64,195894,806.200000762939,"286","mirror",1,0,"FA",TRUE,FALSE
1,"detect-chase","05/17/2022","A10M63DSIGIEDI",65,197755,828,"45","chase",1,1,"Hit",TRUE,FALSE
1,"detect-chase","05/17/2022","A10M63DSIGIEDI",66,202176,3407.10000038147,"224","chase",1,1,"Hit",TRUE,FALSE
1,"detect-chase","05/17/2022","A10M63DSIGIEDI",67,207655,4467.19999885559,"96","chase",1,1,"Hit",TRUE,FALSE
1,"detect-chase","05/17/2022","A10M63DSIGIEDI",68,209857,1197.5,"297","mirror",1,0,"FA",TRUE,FALSE
1,"detect-chase","05/17/2022","A10M63DSIGIEDI",69,212584,1672,"275","mirror",1,0,"FA",TRUE,FALSE
1,"detect-chase","05/17/2022","A10M63DSIGIEDI",70,214822,1220.70000076294,"166","mirror",1,0,"FA",TRUE,FALSE
1,"detect-chase","05/17/2022","A10M63DSIGIEDI",71,217327,1498.79999923706,"178","mirror",0,1,"CR",TRUE,FALSE
1,"detect-chase","05/17/2022","A10M63DSIGIEDI",72,218665,332.200000762939,"218","mirror",0,1,"CR",FALSE,FALSE
1,"detect-chase","05/17/2022","A10M63DSIGIEDI",73,220566,888.60000038147,"73","mirror",0,1,"CR",TRUE,FALSE
1,"detect-chase","05/17/2022","A10M63DSIGIEDI",74,222991,1407,"176","chase",0,0,"Ms",TRUE,FALSE
1,"detect-chase","05/17/2022","A10M63DSIGIEDI",75,224877,852.5,"295","chase",1,1,"Hit",TRUE,FALSE
1,"detect-chase","05/17/2022","A10M63DSIGIEDI",76,226866,979,"184","chase",1,1,"Hit",TRUE,FALSE
1,"detect-chase","05/17/2022","A10M63DSIGIEDI",77,228627,753.200000762939,"55","mirror",1,0,"FA",TRUE,FALSE
1,"detect-chase","05/17/2022","A10M63DSIGIEDI",78,233345,3673.5,"19","chase",1,1,"Hit",TRUE,FALSE
1,"detect-chase","05/17/2022","A10M63DSIGIEDI",79,234763,414,"130","mirror",0,1,"CR",FALSE,FALSE
1,"detect-chase","05/17/2022","A10M63DSIGIEDI",80,236035,259.699998855591,"189","chase",0,0,"Ms",FALSE,FALSE
1,"detect-chase","05/17/2022","A10M63DSIGIEDI",81,238036,986.700000762939,"202","chase",0,0,"Ms",TRUE,FALSE
1,"detect-chase","05/17/2022","A10M63DSIGIEDI",82,239918,833.39999961853,"240","mirror",0,1,"CR",TRUE,FALSE
1,"detect-chase","05/17/2022","A10M63DSIGIEDI",83,242316,1380.29999923706,"254","chase",1,1,"Hit",TRUE,FALSE
1,"detect-chase","05/17/2022","A10M63DSIGIEDI",84,245815,2482.5,"187","chase",1,1,"Hit",TRUE,FALSE
1,"detect-chase","05/17/2022","A10M63DSIGIEDI",85,249014,2180.39999961853,"274","chase",1,1,"Hit",TRUE,FALSE
1,"detect-chase","05/17/2022","A10M63DSIGIEDI",86,250696,673.700000762939,"231","mirror",1,0,"FA",TRUE,FALSE
1,"detect-chase","05/17/2022","A10M63DSIGIEDI",87,252718,1010.5,"59","mirror",0,1,"CR",TRUE,FALSE
1,"detect-chase","05/17/2022","A10M63DSIGIEDI",88,254000,250.299999237061,"61","mirror",0,1,"CR",FALSE,FALSE
1,"detect-chase","05/17/2022","A10M63DSIGIEDI",89,256729,1709.80000114441,"243","mirror",0,1,"CR",TRUE,FALSE
1,"detect-chase","05/17/2022","A10M63DSIGIEDI",90,258649,905.300001144409,"296","mirror",0,1,"CR",TRUE,FALSE
1,"detect-chase","05/17/2022","A10M63DSIGIEDI",91,259759,85.1999988555908,"63","chase",0,0,"Ms",FALSE,FALSE
1,"detect-chase","05/17/2022","A10M63DSIGIEDI",92,261975,1209.39999961853,"52","chase",0,0,"Ms",TRUE,FALSE
1,"detect-chase","05/17/2022","A10M63DSIGIEDI",93,263624,640.800001144409,"209","chase",0,0,"Ms",TRUE,FALSE
1,"detect-chase","05/17/2022","A10M63DSIGIEDI",94,267179,2464.80000114441,"180","chase",0,0,"Ms",TRUE,FALSE
1,"detect-chase","05/17/2022","A10M63DSIGIEDI",95,271895,3700.60000038147,"56","chase",1,1,"Hit",TRUE,FALSE
1,"detect-chase","05/17/2022","A10M63DSIGIEDI",96,274088,1186.30000114441,"240","chase",1,1,"Hit",TRUE,FALSE
1,"detect-chase","05/17/2022","A10M63DSIGIEDI",97,275108,16.9000015258789,"281","chase",1,1,"Hit",FALSE,FALSE
1,"detect-chase","05/17/2022","A10M63DSIGIEDI",98,276395,272.900001525879,"275","chase",0,0,"Ms",FALSE,FALSE
1,"detect-chase","05/17/2022","A10M63DSIGIEDI",99,277727,325.699998855591,"182","chase",1,1,"Hit",FALSE,FALSE
1,"detect-chase","05/17/2022","A10M63DSIGIEDI",100,280329,1569.89999961853,"155","chase",1,1,"Hit",TRUE,FALSE
1,"detect-chase","05/17/2022","A10M63DSIGIEDI",101,281838,485.5,"255","mirror",0,1,"CR",FALSE,FALSE
1,"detect-chase","05/17/2022","A10M63DSIGIEDI",102,283744,865.89999961853,"279","mirror",1,0,"FA",TRUE,FALSE
1,"detect-chase","05/17/2022","A10M63DSIGIEDI",103,285097,311.099998474121,"116","chase",0,0,"Ms",FALSE,FALSE
1,"detect-chase","05/17/2022","A10M63DSIGIEDI",104,287745,1634.10000038147,"77","chase",0,0,"Ms",TRUE,FALSE
1,"detect-chase","05/17/2022","A10M63DSIGIEDI",105,289381,628.5,"157","mirror",0,1,"CR",TRUE,FALSE
1,"detect-chase","05/17/2022","A10M63DSIGIEDI",106,290698,305.599998474121,"47","mirror",0,1,"CR",FALSE,FALSE
1,"detect-chase","05/17/2022","A10M63DSIGIEDI",107,292195,486,"230","chase",0,0,"Ms",FALSE,FALSE
1,"detect-chase","05/17/2022","A10M63DSIGIEDI",108,293523,309.10000038147,"226","mirror",0,1,"CR",FALSE,FALSE
1,"detect-chase","05/17/2022","A10M63DSIGIEDI",109,295215,486.60000038147,"24","mirror",0,1,"CR",FALSE,FALSE
1,"detect-chase","05/17/2022","A10M63DSIGIEDI",110,296886,664.89999961853,"81","chase",1,1,"Hit",TRUE,FALSE
1,"detect-chase","05/17/2022","A10M63DSIGIEDI",111,298065,155.300001144409,"234","mirror",1,0,"FA",FALSE,FALSE
1,"detect-chase","05/17/2022","A10M63DSIGIEDI",112,300292,1221,"27","chase",0,0,"Ms",TRUE,FALSE
1,"detect-chase","05/17/2022","A10M63DSIGIEDI",113,302299,1000.39999961853,"219","chase",0,0,"Ms",TRUE,FALSE
1,"detect-chase","05/17/2022","A10M63DSIGIEDI",114,304736,1431.10000038147,"45","mirror",1,0,"FA",TRUE,FALSE
1,"detect-chase","05/17/2022","A10M63DSIGIEDI",115,306390,637.89999961853,"126","chase",1,1,"Hit",TRUE,FALSE
1,"detect-chase","05/17/2022","A10M63DSIGIEDI",116,307680,234.10000038147,"92","chase",0,0,"Ms",FALSE,FALSE
1,"detect-chase","05/17/2022","A10M63DSIGIEDI",117,309963,1263.89999961853,"226","chase",1,1,"Hit",TRUE,FALSE
1,"detect-chase","05/17/2022","A10M63DSIGIEDI",118,311955,975,"42","chase",1,1,"Hit",TRUE,FALSE
1,"detect-chase","05/17/2022","A10M63DSIGIEDI",119,314305,1337.5,"281","mirror",1,0,"FA",TRUE,FALSE
1,"detect-chase","05/17/2022","A10M63DSIGIEDI",120,316704,1384,"210","chase",1,1,"Hit",TRUE,FALSE
1,"detect-chase","05/17/2022","A10M63DSIGIEDI",121,321816,4099.19999885559,"255","chase",1,1,"Hit",TRUE,FALSE
1,"detect-chase","05/17/2022","A10M63DSIGIEDI",122,326260,3438,"65","chase",0,0,"Ms",TRUE,FALSE
1,"detect-chase","05/17/2022","A10M63DSIGIEDI",123,328374,1108.19999885559,"70","chase",1,1,"Hit",TRUE,FALSE
1,"detect-chase","05/17/2022","A10M63DSIGIEDI",124,330125,743.10000038147,"56","mirror",0,1,"CR",TRUE,FALSE
1,"detect-chase","05/17/2022","A10M63DSIGIEDI",125,332326,1195,"272","mirror",1,0,"FA",TRUE,FALSE
1,"detect-chase","05/17/2022","A10M63DSIGIEDI",126,333677,335.39999961853,"96","mirror",1,0,"FA",FALSE,FALSE
1,"detect-chase","05/17/2022","A10M63DSIGIEDI",127,335685,996.200000762939,"60","chase",1,1,"Hit",TRUE,FALSE
1,"detect-chase","05/17/2022","A10M63DSIGIEDI",128,336845,148.10000038147,"145","chase",1,1,"Hit",FALSE,FALSE
1,"detect-chase","05/17/2022","A10M63DSIGIEDI",129,338391,539.5,"60","mirror",1,0,"FA",TRUE,FALSE
1,"detect-chase","05/17/2022","A10M63DSIGIEDI",130,340520,1118.90000152588,"89","chase",0,0,"Ms",TRUE,FALSE
1,"detect-chase","05/17/2022","A10M63DSIGIEDI",131,341979,455,"198","mirror",0,1,"CR",FALSE,FALSE
1,"detect-chase","05/17/2022","A10M63DSIGIEDI",132,344144,1153.10000038147,"30","chase",0,0,"Ms",TRUE,FALSE
1,"detect-chase","05/17/2022","A10M63DSIGIEDI",133,345581,428.200000762939,"154","chase",0,0,"Ms",FALSE,FALSE
1,"detect-chase","05/17/2022","A10M63DSIGIEDI",134,346746,156.300001144409,"59","chase",0,0,"Ms",FALSE,FALSE
1,"detect-chase","05/17/2022","A10M63DSIGIEDI",135,376541,28783.1000003815,"210","mirror",1,0,"FA",FALSE,FALSE
1,"detect-chase","05/17/2022","A10M63DSIGIEDI",136,377724,173.5,"284","chase",1,1,"Hit",FALSE,FALSE
1,"detect-chase","05/17/2022","A10M63DSIGIEDI",137,381726,2985.30000114441,"234","chase",1,1,"Hit",TRUE,FALSE
1,"detect-chase","05/17/2022","A10M63DSIGIEDI",138,384276,1531.29999923706,"129","chase",1,1,"Hit",TRUE,FALSE
1,"detect-chase","05/17/2022","A10M63DSIGIEDI",139,386016,723.5,"177","mirror",1,0,"FA",TRUE,FALSE
1,"detect-chase","05/17/2022","A10M63DSIGIEDI",140,387191,159.900001525879,"231","chase",0,0,"Ms",FALSE,FALSE
1,"detect-chase","05/17/2022","A10M63DSIGIEDI",141,389861,1640.19999885559,"66","chase",1,1,"Hit",TRUE,FALSE
1,"detect-chase","05/17/2022","A10M63DSIGIEDI",142,391087,205.699998855591,"176","mirror",0,1,"CR",FALSE,FALSE
1,"detect-chase","05/17/2022","A10M63DSIGIEDI",143,392816,715.800001144409,"286","chase",0,0,"Ms",TRUE,FALSE
1,"detect-chase","05/17/2022","A10M63DSIGIEDI",144,394797,969.39999961853,"16","mirror",1,0,"FA",TRUE,FALSE
1,"detect-chase","05/17/2022","A10M63DSIGIEDI",145,396406,594.400001525879,"41","mirror",1,0,"FA",TRUE,FALSE
1,"detect-chase","05/17/2022","A10M63DSIGIEDI",146,398956,1545.79999923706,"129","mirror",0,1,"CR",TRUE,FALSE
1,"detect-chase","05/17/2022","A10M63DSIGIEDI",147,400135,174.199998855591,"63","mirror",0,1,"CR",FALSE,FALSE
1,"detect-chase","05/17/2022","A10M63DSIGIEDI",148,402001,860.39999961853,"184","mirror",0,1,"CR",TRUE,FALSE
1,"detect-chase","05/17/2022","A10M63DSIGIEDI",149,404266,1257.59999847412,"295","mirror",0,1,"CR",TRUE,FALSE
1,"detect-chase","05/17/2022","A10M63DSIGIEDI",150,406231,960,"198","chase",0,0,"Ms",TRUE,FALSE
1,"detect-chase","05/17/2022","A10M63DSIGIEDI",151,407671,425.89999961853,"27","mirror",0,1,"CR",FALSE,FALSE
1,"detect-chase","05/17/2022","A10M63DSIGIEDI",152,409658,971,"254","mirror",0,1,"CR",TRUE,FALSE
1,"detect-chase","05/17/2022","A10M63DSIGIEDI",153,411271,570.60000038147,"250","mirror",0,1,"CR",TRUE,FALSE
1,"detect-chase","05/17/2022","A10M63DSIGIEDI",154,412838,556.5,"177","chase",1,1,"Hit",TRUE,FALSE
1,"detect-chase","05/17/2022","A10M63DSIGIEDI",155,414056,212.5,"30","mirror",1,0,"FA",FALSE,FALSE
1,"detect-chase","05/17/2022","A10M63DSIGIEDI",156,416006,941,"189","mirror",0,1,"CR",TRUE,FALSE
1,"detect-chase","05/17/2022","A10M63DSIGIEDI",157,417301,278.10000038147,"279","chase",1,1,"Hit",FALSE,FALSE
1,"detect-chase","05/17/2022","A10M63DSIGIEDI",158,418670,350.800001144409,"107","chase",1,1,"Hit",FALSE,FALSE
1,"detect-chase","05/17/2022","A10M63DSIGIEDI",159,420386,704.700000762939,"47","chase",1,1,"Hit",TRUE,FALSE
1,"detect-chase","05/17/2022","A10M63DSIGIEDI",160,421610,207.10000038147,"99","chase",0,0,"Ms",FALSE,FALSE
1,"detect-chase","05/17/2022","A10M63DSIGIEDI",161,422877,244.400001525879,"163","chase",0,0,"Ms",FALSE,FALSE
1,"detect-chase","05/17/2022","A10M63DSIGIEDI",162,424780,897,"239","mirror",1,0,"FA",TRUE,FALSE
1,"detect-chase","05/17/2022","A10M63DSIGIEDI",163,427598,1804.70000076294,"239","chase",1,1,"Hit",TRUE,FALSE
1,"detect-chase","05/17/2022","A10M63DSIGIEDI",164,429143,532.300001144409,"81","mirror",1,0,"FA",TRUE,FALSE
1,"detect-chase","05/17/2022","A10M63DSIGIEDI",165,431803,1647.60000038147,"269","mirror",0,1,"CR",TRUE,FALSE
1,"detect-chase","05/17/2022","A10M63DSIGIEDI",166,433006,195.5,"154","mirror",0,1,"CR",FALSE,FALSE
1,"detect-chase","05/17/2022","A10M63DSIGIEDI",167,434625,601.5,"297","chase",0,0,"Ms",TRUE,FALSE
1,"detect-chase","05/17/2022","A10M63DSIGIEDI",168,435966,326.199998855591,"171","chase",0,0,"Ms",FALSE,FALSE
1,"detect-chase","05/17/2022","A10M63DSIGIEDI",169,437403,426.5,"178","chase",0,0,"Ms",FALSE,FALSE
1,"detect-chase","05/17/2022","A10M63DSIGIEDI",170,438702,290.5,"16","chase",0,0,"Ms",FALSE,FALSE
1,"detect-chase","05/17/2022","A10M63DSIGIEDI",171,440490,777.89999961853,"130","chase",0,0,"Ms",TRUE,FALSE
1,"detect-chase","05/17/2022","A10M63DSIGIEDI",172,441936,430,"142","chase",0,0,"Ms",FALSE,FALSE
1,"detect-chase","05/17/2022","A10M63DSIGIEDI",173,444219,1260.5,"107","mirror",1,0,"FA",TRUE,FALSE
1,"detect-chase","05/17/2022","A10M63DSIGIEDI",174,445327,91.3999996185303,"269","chase",0,0,"Ms",FALSE,FALSE
1,"detect-chase","05/17/2022","A10M63DSIGIEDI",175,446681,339.400001525879,"66","mirror",1,0,"FA",FALSE,FALSE
1,"detect-chase","05/17/2022","A10M63DSIGIEDI",176,447717,32.3999996185303,"248","mirror",1,0,"FA",FALSE,FALSE
1,"detect-chase","05/17/2022","A10M63DSIGIEDI",177,449485,741.200000762939,"260","mirror",1,0,"FA",TRUE,FALSE
1,"detect-chase","05/17/2022","A10M63DSIGIEDI",178,451267,757.10000038147,"238","mirror",0,1,"CR",TRUE,FALSE
1,"detect-chase","05/17/2022","A10M63DSIGIEDI",179,452876,601.300001144409,"44","chase",0,0,"Ms",TRUE,FALSE
1,"detect-chase","05/17/2022","A10M63DSIGIEDI",180,454446,558.60000038147,"223","mirror",1,0,"FA",TRUE,FALSE
1,"detect-chase","05/17/2022","A10M63DSIGIEDI",181,455891,425.700000762939,"77","mirror",1,0,"FA",FALSE,FALSE
1,"detect-chase","05/17/2022","A10M63DSIGIEDI",182,457852,950.200000762939,"116","mirror",0,1,"CR",TRUE,FALSE
1,"detect-chase","05/17/2022","A10M63DSIGIEDI",183,458976,109.39999961853,"99","mirror",0,1,"CR",FALSE,FALSE
1,"detect-chase","05/17/2022","A10M63DSIGIEDI",184,460316,322.299999237061,"122","chase",1,1,"Hit",FALSE,FALSE
1,"detect-chase","05/17/2022","A10M63DSIGIEDI",185,461661,313.39999961853,"31","mirror",0,1,"CR",FALSE,FALSE
1,"detect-chase","05/17/2022","A10M63DSIGIEDI",186,464189,1517.39999961853,"1","chase",1,1,"Hit",TRUE,FALSE
1,"detect-chase","05/17/2022","A10M63DSIGIEDI",187,465296,95.8999996185303,"42","mirror",1,0,"FA",FALSE,FALSE
1,"detect-chase","05/17/2022","A10M63DSIGIEDI",188,467261,951.60000038147,"238","chase",1,1,"Hit",TRUE,FALSE
1,"detect-chase","05/17/2022","A10M63DSIGIEDI",189,468283,18,"41","chase",1,1,"Hit",FALSE,FALSE
1,"detect-chase","05/17/2022","A10M63DSIGIEDI",190,470114,817.89999961853,"11","mirror",1,0,"FA",TRUE,FALSE
1,"detect-chase","05/17/2022","A10M63DSIGIEDI",191,472036,911.299999237061,"145","mirror",1,0,"FA",TRUE,FALSE
1,"detect-chase","05/17/2022","A10M63DSIGIEDI",192,473976,905.5,"108","chase",1,1,"Hit",TRUE,FALSE
1,"detect-chase","05/17/2022","A10M63DSIGIEDI",193,475151,172,"49","chase",1,1,"Hit",FALSE,FALSE
1,"detect-chase","05/17/2022","A10M63DSIGIEDI",194,477745,1580.79999923706,"122","mirror",1,0,"FA",TRUE,FALSE
1,"detect-chase","05/17/2022","A10M63DSIGIEDI",195,479397,637.299999237061,"290","mirror",1,0,"FA",TRUE,FALSE
1,"detect-chase","05/17/2022","A10M63DSIGIEDI",196,480847,441.299999237061,"233","mirror",1,0,"FA",FALSE,FALSE
1,"detect-chase","05/17/2022","A10M63DSIGIEDI",197,482458,592.39999961853,"157","chase",1,1,"Hit",TRUE,FALSE
1,"detect-chase","05/17/2022","A10M63DSIGIEDI",198,484950,1481.40000152588,"292","mirror",1,0,"FA",TRUE,FALSE
1,"detect-chase","05/17/2022","A10M63DSIGIEDI",199,486904,942.200000762939,"76","chase",1,1,"Hit",TRUE,FALSE
1,"detect-chase","05/17/2022","A10M63DSIGIEDI",200,488285,342.10000038147,"209","mirror",1,0,"FA",FALSE,FALSE
1,"detect-chase","06/02/2022","A12FTSX85NQ8N9",1,138909,679.900000000373,"227","chase",1,1,"Hit",TRUE,TRUE
1,"detect-chase","06/02/2022","A12FTSX85NQ8N9",2,142705,1790.10000000149,"26","mirror",1,0,"FA",TRUE,TRUE
1,"detect-chase","06/02/2022","A12FTSX85NQ8N9",3,146514,1803.5,"227","mirror",1,0,"FA",TRUE,TRUE
1,"detect-chase","06/02/2022","A12FTSX85NQ8N9",4,152681,4161.59999999963,"72","chase",1,1,"Hit",TRUE,TRUE
1,"detect-chase","06/02/2022","A12FTSX85NQ8N9",5,158012,3325.09999999963,"108","mirror",0,1,"CR",TRUE,TRUE
1,"detect-chase","06/02/2022","A12FTSX85NQ8N9",6,162825,2808.09999999963,"169","mirror",0,1,"CR",TRUE,TRUE
1,"detect-chase","06/02/2022","A12FTSX85NQ8N9",7,167432,2601.69999999925,"26","chase",1,1,"Hit",TRUE,TRUE
1,"detect-chase","06/02/2022","A12FTSX85NQ8N9",8,172626,3189.20000000112,"169","chase",1,1,"Hit",TRUE,TRUE
1,"detect-chase","06/02/2022","A12FTSX85NQ8N9",9,177407,2776,"155","mirror",0,1,"CR",TRUE,TRUE
1,"detect-chase","06/02/2022","A12FTSX85NQ8N9",10,181514,2101.10000000149,"155","chase",0,0,"Ms",TRUE,TRUE
1,"detect-chase","06/02/2022","A12FTSX85NQ8N9",11,186173,2654.5,"108","chase",1,1,"Hit",TRUE,TRUE
1,"detect-chase","06/02/2022","A12FTSX85NQ8N9",12,191168,2989.5,"72","mirror",0,1,"CR",TRUE,TRUE
1,"detect-chase","06/02/2022","A12FTSX85NQ8N9",13,890056,2985.30000000075,"34","chase",1,1,"Hit",TRUE,TRUE
1,"detect-chase","06/02/2022","A12FTSX85NQ8N9",14,893946,2885.80000000075,"124","mirror",0,1,"CR",TRUE,TRUE
1,"detect-chase","06/02/2022","A12FTSX85NQ8N9",15,897538,2584,"214","mirror",1,0,"FA",TRUE,TRUE
1,"detect-chase","06/02/2022","A12FTSX85NQ8N9",16,901147,2604.69999999925,"236","chase",1,1,"Hit",TRUE,TRUE
1,"detect-chase","06/02/2022","A12FTSX85NQ8N9",17,904846,2696.10000000149,"30","chase",1,1,"Hit",TRUE,TRUE
1,"detect-chase","06/02/2022","A12FTSX85NQ8N9",18,909089,3228,"260","mirror",1,0,"FA",TRUE,TRUE
1,"detect-chase","06/02/2022","A12FTSX85NQ8N9",19,913155,3062.10000000149,"201","mirror",0,1,"CR",TRUE,TRUE
1,"detect-chase","06/02/2022","A12FTSX85NQ8N9",20,917551,3393,"19","mirror",1,0,"FA",TRUE,TRUE
1,"detect-chase","06/02/2022","A12FTSX85NQ8N9",21,922815,4258.09999999963,"68","mirror",0,1,"CR",TRUE,TRUE
1,"detect-chase","06/02/2022","A12FTSX85NQ8N9",22,927772,3953.70000000112,"141","mirror",1,0,"FA",TRUE,TRUE
1,"detect-chase","06/02/2022","A12FTSX85NQ8N9",23,931882,3106.90000000037,"269","chase",1,1,"Hit",TRUE,TRUE
1,"detect-chase","06/02/2022","A12FTSX85NQ8N9",24,935434,2531,"289","mirror",1,0,"FA",TRUE,TRUE
1,"detect-chase","06/02/2022","A12FTSX85NQ8N9",25,939755,3316.80000000075,"70","mirror",0,1,"CR",TRUE,TRUE
1,"detect-chase","06/02/2022","A12FTSX85NQ8N9",26,945380,4621.70000000112,"170","mirror",1,0,"FA",TRUE,TRUE
1,"detect-chase","06/02/2022","A12FTSX85NQ8N9",27,950293,3909,"68","chase",0,0,"Ms",TRUE,TRUE
1,"detect-chase","06/02/2022","A12FTSX85NQ8N9",28,953902,2604.30000000075,"296","chase",1,1,"Hit",TRUE,TRUE
1,"detect-chase","06/02/2022","A12FTSX85NQ8N9",29,957438,2529.5,"70","chase",1,1,"Hit",TRUE,TRUE
1,"detect-chase","06/02/2022","A12FTSX85NQ8N9",30,961710,3268.09999999963,"236","mirror",1,0,"FA",TRUE,TRUE
1,"detect-chase","06/02/2022","A12FTSX85NQ8N9",31,966586,3855.5,"255","chase",0,0,"Ms",TRUE,TRUE
1,"detect-chase","06/02/2022","A12FTSX85NQ8N9",32,970348,2758.5,"39","chase",0,0,"Ms",TRUE,TRUE
1,"detect-chase","06/02/2022","A12FTSX85NQ8N9",33,975832,4480.20000000112,"261","chase",0,0,"Ms",TRUE,TRUE
1,"detect-chase","06/02/2022","A12FTSX85NQ8N9",34,981389,4553,"238","mirror",1,0,"FA",TRUE,TRUE
1,"detect-chase","06/02/2022","A12FTSX85NQ8N9",35,985528,3135.10000000149,"299","mirror",1,0,"FA",TRUE,TRUE
1,"detect-chase","06/02/2022","A12FTSX85NQ8N9",36,990982,4450.19999999925,"176","mirror",1,0,"FA",TRUE,TRUE
1,"detect-chase","06/02/2022","A12FTSX85NQ8N9",37,996729,4743.40000000037,"123","chase",0,0,"Ms",TRUE,TRUE
1,"detect-chase","06/02/2022","A12FTSX85NQ8N9",38,1002201,4468.19999999925,"90","chase",1,1,"Hit",TRUE,TRUE
1,"detect-chase","06/02/2022","A12FTSX85NQ8N9",39,1007942,4736.90000000037,"15","chase",1,1,"Hit",TRUE,TRUE
1,"detect-chase","06/02/2022","A12FTSX85NQ8N9",40,1011580,2633.5,"282","mirror",1,0,"FA",TRUE,TRUE
1,"detect-chase","06/02/2022","A12FTSX85NQ8N9",41,1015054,2466.90000000037,"112","chase",1,1,"Hit",TRUE,TRUE
1,"detect-chase","06/02/2022","A12FTSX85NQ8N9",42,1017861,1803.80000000075,"246","chase",1,1,"Hit",TRUE,TRUE
1,"detect-chase","06/02/2022","A12FTSX85NQ8N9",43,1023269,4404,"148","mirror",1,0,"FA",TRUE,TRUE
1,"detect-chase","06/02/2022","A12FTSX85NQ8N9",44,1026855,2567.79999999888,"82","chase",1,1,"Hit",TRUE,TRUE
1,"detect-chase","06/02/2022","A12FTSX85NQ8N9",45,1030938,3079.69999999925,"139","chase",1,1,"Hit",TRUE,TRUE
1,"detect-chase","06/02/2022","A12FTSX85NQ8N9",46,1033956,2015,"243","chase",0,0,"Ms",TRUE,TRUE
1,"detect-chase","06/02/2022","A12FTSX85NQ8N9",47,1037800,2840.10000000149,"121","mirror",0,1,"CR",TRUE,TRUE
1,"detect-chase","06/02/2022","A12FTSX85NQ8N9",48,1042185,3381.30000000075,"272","chase",1,1,"Hit",TRUE,TRUE
1,"detect-chase","06/02/2022","A12FTSX85NQ8N9",49,1047457,4267.79999999888,"1","mirror",1,0,"FA",TRUE,TRUE
1,"detect-chase","06/02/2022","A12FTSX85NQ8N9",50,1052677,4217.09999999963,"124","chase",1,1,"Hit",TRUE,TRUE
1,"detect-chase","06/02/2022","A12FTSX85NQ8N9",51,1057577,3895.09999999963,"189","chase",1,1,"Hit",TRUE,TRUE
1,"detect-chase","06/02/2022","A12FTSX85NQ8N9",52,1063156,4576.20000000112,"23","mirror",1,0,"FA",TRUE,TRUE
1,"detect-chase","06/02/2022","A12FTSX85NQ8N9",53,1068508,4348.29999999888,"297","mirror",0,1,"CR",TRUE,TRUE
1,"detect-chase","06/02/2022","A12FTSX85NQ8N9",54,1074457,4944.90000000037,"204","chase",0,0,"Ms",TRUE,TRUE
1,"detect-chase","06/02/2022","A12FTSX85NQ8N9",55,1080092,4630.90000000037,"3","chase",1,1,"Hit",TRUE,TRUE
1,"detect-chase","06/02/2022","A12FTSX85NQ8N9",56,1085574,4478.40000000037,"261","mirror",1,0,"FA",TRUE,TRUE
1,"detect-chase","06/02/2022","A12FTSX85NQ8N9",57,1089738,3160.19999999925,"183","chase",0,0,"Ms",TRUE,TRUE
1,"detect-chase","06/02/2022","A12FTSX85NQ8N9",58,1095758,5000.40000000037,"46","chase",1,1,"Hit",TRUE,TRUE
1,"detect-chase","06/02/2022","A12FTSX85NQ8N9",59,1101413,4651.59999999963,"143","mirror",0,1,"CR",TRUE,TRUE
1,"detect-chase","06/02/2022","A12FTSX85NQ8N9",60,1106614,4196.70000000112,"106","chase",1,1,"Hit",TRUE,TRUE
1,"detect-chase","06/02/2022","A12FTSX85NQ8N9",61,1111570,3952.5,"148","chase",0,0,"Ms",TRUE,TRUE
1,"detect-chase","06/02/2022","A12FTSX85NQ8N9",62,1117970,5396.09999999963,"272","mirror",0,1,"CR",TRUE,TRUE
1,"detect-chase","06/02/2022","A12FTSX85NQ8N9",63,1123137,4162.69999999925,"211","mirror",0,1,"CR",TRUE,TRUE
1,"detect-chase","06/02/2022","A12FTSX85NQ8N9",64,1127306,3165.70000000112,"36","chase",1,1,"Hit",TRUE,TRUE
1,"detect-chase","06/02/2022","A12FTSX85NQ8N9",65,1131645,3334.90000000037,"166","chase",1,1,"Hit",TRUE,TRUE
1,"detect-chase","06/02/2022","A12FTSX85NQ8N9",66,1137558,4909.29999999888,"294","chase",0,0,"Ms",TRUE,TRUE
1,"detect-chase","06/02/2022","A12FTSX85NQ8N9",67,1142665,4104.19999999925,"15","mirror",0,1,"CR",TRUE,TRUE
1,"detect-chase","06/02/2022","A12FTSX85NQ8N9",68,1148147,4468.60000000149,"28","mirror",0,1,"CR",TRUE,TRUE
1,"detect-chase","06/02/2022","A12FTSX85NQ8N9",69,1153425,4274.59999999963,"190","mirror",0,1,"CR",TRUE,TRUE
1,"detect-chase","06/02/2022","A12FTSX85NQ8N9",70,1157275,2846.59999999963,"39","mirror",1,0,"FA",TRUE,TRUE
1,"detect-chase","06/02/2022","A12FTSX85NQ8N9",71,1163020,4739.5,"147","mirror",0,1,"CR",TRUE,TRUE
1,"detect-chase","06/02/2022","A12FTSX85NQ8N9",72,1167833,3808.90000000037,"296","mirror",0,1,"CR",TRUE,TRUE
1,"detect-chase","06/02/2022","A12FTSX85NQ8N9",73,1172356,3520.19999999925,"178","chase",1,1,"Hit",TRUE,TRUE
1,"detect-chase","06/02/2022","A12FTSX85NQ8N9",74,1176406,3038.59999999963,"117","chase",0,0,"Ms",TRUE,TRUE
1,"detect-chase","06/02/2022","A12FTSX85NQ8N9",75,1180523,3112.59999999963,"141","chase",1,1,"Hit",TRUE,TRUE
1,"detect-chase","06/02/2022","A12FTSX85NQ8N9",76,1185122,3588.29999999888,"49","mirror",0,1,"CR",TRUE,TRUE
1,"detect-chase","06/02/2022","A12FTSX85NQ8N9",77,1190821,4694.60000000149,"106","mirror",1,0,"FA",TRUE,TRUE
1,"detect-chase","06/02/2022","A12FTSX85NQ8N9",78,1196269,4444.39999999851,"270","chase",1,1,"Hit",TRUE,TRUE
1,"detect-chase","06/02/2022","A12FTSX85NQ8N9",79,1202055,4781.5,"41","mirror",0,1,"CR",TRUE,TRUE
1,"detect-chase","06/02/2022","A12FTSX85NQ8N9",80,1207592,4533.60000000149,"274","mirror",0,1,"CR",TRUE,TRUE
1,"detect-chase","06/02/2022","A12FTSX85NQ8N9",81,1212628,4032,"134","mirror",1,0,"FA",TRUE,TRUE
1,"detect-chase","06/02/2022","A12FTSX85NQ8N9",82,1216735,3102.69999999925,"35","chase",1,1,"Hit",TRUE,TRUE
1,"detect-chase","06/02/2022","A12FTSX85NQ8N9",83,1222090,4351.40000000037,"154","mirror",0,1,"CR",TRUE,TRUE
1,"detect-chase","06/02/2022","A12FTSX85NQ8N9",84,1227689,4595.80000000075,"246","mirror",0,1,"CR",TRUE,TRUE
1,"detect-chase","06/02/2022","A12FTSX85NQ8N9",85,1233159,4465.89999999851,"32","mirror",1,0,"FA",TRUE,TRUE
1,"detect-chase","06/02/2022","A12FTSX85NQ8N9",86,1238876,4713.90000000037,"30","mirror",0,1,"CR",TRUE,TRUE
1,"detect-chase","06/02/2022","A12FTSX85NQ8N9",87,1244388,4508.30000000075,"128","chase",1,1,"Hit",TRUE,TRUE
1,"detect-chase","06/02/2022","A12FTSX85NQ8N9",88,1249829,4437.80000000075,"83","chase",0,0,"Ms",TRUE,TRUE
1,"detect-chase","06/02/2022","A12FTSX85NQ8N9",89,1256138,5305.19999999925,"41","chase",1,1,"Hit",TRUE,TRUE
1,"detect-chase","06/02/2022","A12FTSX85NQ8N9",90,1261820,4678.80000000075,"84","chase",0,0,"Ms",TRUE,TRUE
1,"detect-chase","06/02/2022","A12FTSX85NQ8N9",91,1267701,4877.5,"255","mirror",0,1,"CR",TRUE,TRUE
1,"detect-chase","06/02/2022","A12FTSX85NQ8N9",92,1273539,4833.80000000075,"189","mirror",1,0,"FA",TRUE,TRUE
1,"detect-chase","06/02/2022","A12FTSX85NQ8N9",93,1279474,4932,"241","mirror",0,1,"CR",TRUE,TRUE
1,"detect-chase","06/02/2022","A12FTSX85NQ8N9",94,1285505,5027.29999999888,"32","chase",0,0,"Ms",TRUE,TRUE
1,"detect-chase","06/02/2022","A12FTSX85NQ8N9",95,1290503,3994.59999999963,"101","mirror",0,1,"CR",TRUE,TRUE
1,"detect-chase","06/02/2022","A12FTSX85NQ8N9",96,1296220,4712.40000000037,"82","mirror",0,1,"CR",TRUE,TRUE
1,"detect-chase","06/02/2022","A12FTSX85NQ8N9",97,1301758,4534.80000000075,"249","mirror",1,0,"FA",TRUE,TRUE
1,"detect-chase","06/02/2022","A12FTSX85NQ8N9",98,1307288,4525.80000000075,"21","chase",0,0,"Ms",TRUE,TRUE
1,"detect-chase","06/02/2022","A12FTSX85NQ8N9",99,1312762,4469.80000000075,"284","mirror",0,1,"CR",TRUE,TRUE
1,"detect-chase","06/02/2022","A12FTSX85NQ8N9",100,1318348,4582.10000000149,"263","chase",1,1,"Hit",TRUE,TRUE
1,"detect-chase","06/02/2022","A12FTSX85NQ8N9",101,1324768,5416.40000000037,"112","mirror",0,1,"CR",TRUE,TRUE
1,"detect-chase","06/02/2022","A12FTSX85NQ8N9",102,1330972,5200.59999999963,"46","mirror",0,1,"CR",TRUE,TRUE
1,"detect-chase","06/02/2022","A12FTSX85NQ8N9",103,1337110,5134.09999999963,"115","chase",1,1,"Hit",TRUE,TRUE
1,"detect-chase","06/02/2022","A12FTSX85NQ8N9",104,1342794,4679.80000000075,"132","mirror",0,1,"CR",TRUE,TRUE
1,"detect-chase","06/02/2022","A12FTSX85NQ8N9",105,1348480,4682.70000000112,"176","chase",0,0,"Ms",TRUE,TRUE
1,"detect-chase","06/02/2022","A12FTSX85NQ8N9",106,1353904,4419.70000000112,"243","mirror",0,1,"CR",TRUE,TRUE
1,"detect-chase","06/02/2022","A12FTSX85NQ8N9",107,1359368,4460.29999999888,"163","mirror",0,1,"CR",TRUE,TRUE
1,"detect-chase","06/02/2022","A12FTSX85NQ8N9",108,1365141,4768.59999999963,"3","mirror",0,1,"CR",TRUE,TRUE
1,"detect-chase","06/02/2022","A12FTSX85NQ8N9",109,1370730,4585.69999999925,"139","mirror",0,1,"CR",TRUE,TRUE
1,"detect-chase","06/02/2022","A12FTSX85NQ8N9",110,1376174,4440.59999999963,"214","chase",0,0,"Ms",TRUE,TRUE
1,"detect-chase","06/02/2022","A12FTSX85NQ8N9",111,1381967,4789,"297","chase",1,1,"Hit",TRUE,TRUE
1,"detect-chase","06/02/2022","A12FTSX85NQ8N9",112,1387941,4969.69999999925,"147","chase",0,0,"Ms",TRUE,TRUE
1,"detect-chase","06/02/2022","A12FTSX85NQ8N9",113,1392779,3834.20000000112,"222","chase",1,1,"Hit",TRUE,TRUE
1,"detect-chase","06/02/2022","A12FTSX85NQ8N9",114,1398404,4621.40000000037,"133","chase",0,0,"Ms",TRUE,TRUE
1,"detect-chase","06/02/2022","A12FTSX85NQ8N9",115,1403235,3826.80000000075,"294","mirror",1,0,"FA",TRUE,TRUE
1,"detect-chase","06/02/2022","A12FTSX85NQ8N9",116,1409293,5054,"47","mirror",0,1,"CR",TRUE,TRUE
1,"detect-chase","06/02/2022","A12FTSX85NQ8N9",117,1415148,4852.09999999963,"263","mirror",0,1,"CR",TRUE,TRUE
1,"detect-chase","06/02/2022","A12FTSX85NQ8N9",118,1420670,4518,"117","mirror",0,1,"CR",TRUE,TRUE
1,"detect-chase","06/02/2022","A12FTSX85NQ8N9",119,1426341,4667.09999999963,"204","mirror",0,1,"CR",TRUE,TRUE
1,"detect-chase","06/02/2022","A12FTSX85NQ8N9",120,1432280,4935.90000000037,"19","chase",1,1,"Hit",TRUE,TRUE
1,"detect-chase","06/02/2022","A12FTSX85NQ8N9",121,1437975,4690.29999999888,"123","mirror",0,1,"CR",TRUE,TRUE
1,"detect-chase","06/02/2022","A12FTSX85NQ8N9",122,1443833,4854.09999999963,"253","mirror",1,0,"FA",TRUE,TRUE
1,"detect-chase","06/02/2022","A12FTSX85NQ8N9",123,1449474,4637.20000000112,"285","mirror",0,1,"CR",TRUE,TRUE
1,"detect-chase","06/02/2022","A12FTSX85NQ8N9",124,1455498,5020.90000000037,"34","mirror",0,1,"CR",TRUE,TRUE
1,"detect-chase","06/02/2022","A12FTSX85NQ8N9",125,1460984,4482.39999999851,"36","mirror",0,1,"CR",TRUE,TRUE
1,"detect-chase","06/02/2022","A12FTSX85NQ8N9",126,1466270,4282,"47","chase",1,1,"Hit",TRUE,TRUE
1,"detect-chase","06/02/2022","A12FTSX85NQ8N9",127,1471930,4655.80000000075,"105","chase",0,0,"Ms",TRUE,TRUE
1,"detect-chase","06/02/2022","A12FTSX85NQ8N9",128,1476456,3522.70000000112,"35","mirror",1,0,"FA",TRUE,TRUE
1,"detect-chase","06/02/2022","A12FTSX85NQ8N9",129,1482111,4650.69999999925,"170","chase",1,1,"Hit",TRUE,TRUE
1,"detect-chase","06/02/2022","A12FTSX85NQ8N9",130,1486482,3367.19999999925,"1","chase",1,1,"Hit",TRUE,TRUE
1,"detect-chase","06/02/2022","A12FTSX85NQ8N9",131,1492492,5005.19999999925,"160","mirror",0,1,"CR",TRUE,TRUE
1,"detect-chase","06/02/2022","A12FTSX85NQ8N9",132,1497923,4426.89999999851,"201","chase",1,1,"Hit",TRUE,TRUE
1,"detect-chase","06/02/2022","A12FTSX85NQ8N9",133,1503796,4869.30000000075,"154","chase",1,1,"Hit",TRUE,TRUE
1,"detect-chase","06/02/2022","A12FTSX85NQ8N9",134,1509928,5128.29999999888,"199","chase",0,0,"Ms",TRUE,TRUE
1,"detect-chase","06/02/2022","A12FTSX85NQ8N9",135,1515403,4471.80000000075,"121","chase",0,0,"Ms",TRUE,TRUE
1,"detect-chase","06/02/2022","A12FTSX85NQ8N9",136,1519563,3156.09999999963,"51","mirror",0,1,"CR",TRUE,TRUE
1,"detect-chase","06/02/2022","A12FTSX85NQ8N9",137,1522996,2413.79999999888,"105","mirror",1,0,"FA",TRUE,TRUE
1,"detect-chase","06/02/2022","A12FTSX85NQ8N9",138,1529272,5269.5,"292","mirror",0,1,"CR",TRUE,TRUE
1,"detect-chase","06/02/2022","A12FTSX85NQ8N9",139,1534866,4590.5,"274","chase",0,0,"Ms",TRUE,TRUE
1,"detect-chase","06/02/2022","A12FTSX85NQ8N9",140,1538920,3050.10000000149,"269","mirror",0,1,"CR",TRUE,TRUE
1,"detect-chase","06/02/2022","A12FTSX85NQ8N9",141,1544509,4585.19999999925,"199","mirror",0,1,"CR",TRUE,TRUE
1,"detect-chase","06/02/2022","A12FTSX85NQ8N9",142,1551062,5548.69999999925,"160","chase",0,0,"Ms",TRUE,TRUE
1,"detect-chase","06/02/2022","A12FTSX85NQ8N9",143,1556533,4467.59999999963,"132","chase",0,0,"Ms",TRUE,TRUE
1,"detect-chase","06/02/2022","A12FTSX85NQ8N9",144,1561983,4446.29999999888,"157","mirror",0,1,"CR",TRUE,TRUE
1,"detect-chase","06/02/2022","A12FTSX85NQ8N9",145,1566973,3986,"140","mirror",1,0,"FA",TRUE,TRUE
1,"detect-chase","06/02/2022","A12FTSX85NQ8N9",146,1572818,4841.89999999851,"180","mirror",0,1,"CR",TRUE,TRUE
1,"detect-chase","06/02/2022","A12FTSX85NQ8N9",147,1578676,4853.79999999888,"157","chase",0,0,"Ms",TRUE,TRUE
1,"detect-chase","06/02/2022","A12FTSX85NQ8N9",148,1582493,2813.59999999963,"49","chase",1,1,"Hit",TRUE,TRUE
1,"detect-chase","06/02/2022","A12FTSX85NQ8N9",149,1588517,5020.59999999963,"166","mirror",1,0,"FA",TRUE,TRUE
1,"detect-chase","06/02/2022","A12FTSX85NQ8N9",150,1592309,2787.69999999925,"285","chase",1,1,"Hit",TRUE,TRUE
1,"detect-chase","06/02/2022","A12FTSX85NQ8N9",151,1596101,2788.89999999851,"80","chase",1,1,"Hit",TRUE,TRUE
1,"detect-chase","06/02/2022","A12FTSX85NQ8N9",152,1601711,4596,"226","chase",0,0,"Ms",TRUE,TRUE
1,"detect-chase","06/02/2022","A12FTSX85NQ8N9",153,1607171,4456.30000000075,"84","mirror",0,1,"CR",TRUE,TRUE
1,"detect-chase","06/02/2022","A12FTSX85NQ8N9",154,1610841,2666.5,"28","chase",1,1,"Hit",TRUE,TRUE
1,"detect-chase","06/02/2022","A12FTSX85NQ8N9",155,1617257,5411.40000000037,"89","chase",1,1,"Hit",TRUE,TRUE
1,"detect-chase","06/02/2022","A12FTSX85NQ8N9",156,1623628,5367.10000000149,"233","mirror",0,1,"CR",TRUE,TRUE
1,"detect-chase","06/02/2022","A12FTSX85NQ8N9",157,1629502,4869.69999999925,"89","mirror",0,1,"CR",TRUE,TRUE
1,"detect-chase","06/02/2022","A12FTSX85NQ8N9",158,1634953,4447.5,"80","mirror",0,1,"CR",TRUE,TRUE
1,"detect-chase","06/02/2022","A12FTSX85NQ8N9",159,1640976,5019.5,"226","mirror",0,1,"CR",TRUE,TRUE
1,"detect-chase","06/02/2022","A12FTSX85NQ8N9",160,1646370,4390,"270","mirror",0,1,"CR",TRUE,TRUE
1,"detect-chase","06/02/2022","A12FTSX85NQ8N9",161,1652214,4840.09999999963,"289","chase",1,1,"Hit",TRUE,TRUE
1,"detect-chase","06/02/2022","A12FTSX85NQ8N9",162,1657546,4327.79999999888,"178","mirror",0,1,"CR",TRUE,TRUE
1,"detect-chase","06/02/2022","A12FTSX85NQ8N9",163,1662487,3937.70000000112,"249","chase",0,0,"Ms",TRUE,TRUE
1,"detect-chase","06/02/2022","A12FTSX85NQ8N9",164,1666911,3419.89999999851,"137","mirror",0,1,"CR",TRUE,TRUE
1,"detect-chase","06/02/2022","A12FTSX85NQ8N9",165,1671768,3852.30000000075,"241","chase",1,1,"Hit",TRUE,TRUE
1,"detect-chase","06/02/2022","A12FTSX85NQ8N9",166,1677389,4617.30000000075,"143","chase",0,0,"Ms",TRUE,TRUE
1,"detect-chase","06/02/2022","A12FTSX85NQ8N9",167,1682494,4101.40000000037,"115","mirror",0,1,"CR",TRUE,TRUE
1,"detect-chase","06/02/2022","A12FTSX85NQ8N9",168,1686141,2643.09999999963,"299","chase",1,1,"Hit",TRUE,TRUE
1,"detect-chase","06/02/2022","A12FTSX85NQ8N9",169,1691716,4571.19999999925,"51","chase",0,0,"Ms",TRUE,TRUE
1,"detect-chase","06/02/2022","A12FTSX85NQ8N9",170,1696865,4146,"260","chase",1,1,"Hit",TRUE,TRUE
1,"detect-chase","06/02/2022","A12FTSX85NQ8N9",171,1702742,4872.10000000149,"128","mirror",0,1,"CR",TRUE,TRUE
1,"detect-chase","06/02/2022","A12FTSX85NQ8N9",172,1707524,3778.20000000112,"183","mirror",0,1,"CR",TRUE,TRUE
1,"detect-chase","06/02/2022","A12FTSX85NQ8N9",173,1712167,3639.5,"282","chase",1,1,"Hit",TRUE,TRUE
1,"detect-chase","06/02/2022","A12FTSX85NQ8N9",174,1718045,4874.30000000075,"156","mirror",1,0,"FA",TRUE,TRUE
1,"detect-chase","06/02/2022","A12FTSX85NQ8N9",175,1723948,4898.5,"156","chase",0,0,"Ms",TRUE,TRUE
1,"detect-chase","06/02/2022","A12FTSX85NQ8N9",176,1728464,3513,"266","mirror",1,0,"FA",TRUE,TRUE
1,"detect-chase","06/02/2022","A12FTSX85NQ8N9",177,1734064,4596.5,"140","chase",1,1,"Hit",TRUE,TRUE
1,"detect-chase","06/02/2022","A12FTSX85NQ8N9",178,1739479,4399.79999999888,"238","chase",0,0,"Ms",TRUE,TRUE
1,"detect-chase","06/02/2022","A12FTSX85NQ8N9",179,1742818,2334.69999999925,"180","chase",0,0,"Ms",TRUE,TRUE
1,"detect-chase","06/02/2022","A12FTSX85NQ8N9",180,1748317,4495.80000000075,"101","chase",0,0,"Ms",TRUE,TRUE
1,"detect-chase","06/02/2022","A12FTSX85NQ8N9",181,1753553,4232.5,"163","chase",1,1,"Hit",TRUE,TRUE
1,"detect-chase","06/02/2022","A12FTSX85NQ8N9",182,1759257,4699.40000000037,"203","mirror",0,1,"CR",TRUE,TRUE
1,"detect-chase","06/02/2022","A12FTSX85NQ8N9",183,1764772,4512.09999999963,"137","chase",0,0,"Ms",TRUE,TRUE
1,"detect-chase","06/02/2022","A12FTSX85NQ8N9",184,1770636,4860.59999999963,"284","chase",1,1,"Hit",TRUE,TRUE
1,"detect-chase","06/02/2022","A12FTSX85NQ8N9",185,1776483,4843.09999999963,"222","mirror",0,1,"CR",TRUE,TRUE
1,"detect-chase","06/02/2022","A12FTSX85NQ8N9",186,1782018,4530.19999999925,"208","chase",0,0,"Ms",TRUE,TRUE
1,"detect-chase","06/02/2022","A12FTSX85NQ8N9",187,1788054,5031.70000000112,"253","chase",0,0,"Ms",TRUE,TRUE
1,"detect-chase","06/02/2022","A12FTSX85NQ8N9",188,1793655,4597.90000000037,"23","chase",0,0,"Ms",TRUE,TRUE
1,"detect-chase","06/02/2022","A12FTSX85NQ8N9",189,1797645,2985.59999999963,"266","chase",1,1,"Hit",TRUE,TRUE
1,"detect-chase","06/02/2022","A12FTSX85NQ8N9",190,1803376,4703.30000000075,"134","chase",1,1,"Hit",TRUE,TRUE
1,"detect-chase","06/02/2022","A12FTSX85NQ8N9",191,1808903,4522.5,"292","chase",0,0,"Ms",TRUE,TRUE
1,"detect-chase","06/02/2022","A12FTSX85NQ8N9",192,1818243,8336.09999999963,"90","mirror",0,1,"CR",FALSE,TRUE
1,"detect-chase","06/02/2022","A12FTSX85NQ8N9",193,1827158,7911.29999999888,"211","chase",0,0,"Ms",TRUE,TRUE
1,"detect-chase","06/02/2022","A12FTSX85NQ8N9",194,1832673,4511.70000000112,"83","mirror",0,1,"CR",TRUE,TRUE
1,"detect-chase","06/02/2022","A12FTSX85NQ8N9",195,1838252,4574.90000000037,"208","mirror",0,1,"CR",TRUE,TRUE
1,"detect-chase","06/02/2022","A12FTSX85NQ8N9",196,1842316,3060.20000000112,"21","mirror",0,1,"CR",TRUE,TRUE
1,"detect-chase","06/02/2022","A12FTSX85NQ8N9",197,1847209,3876.20000000112,"203","chase",1,1,"Hit",TRUE,TRUE
1,"detect-chase","06/02/2022","A12FTSX85NQ8N9",198,1852983,4770.30000000075,"233","chase",0,0,"Ms",TRUE,TRUE
1,"detect-chase","06/02/2022","A12FTSX85NQ8N9",199,1858243,4256.59999999963,"190","chase",0,0,"Ms",TRUE,TRUE
1,"detect-chase","06/02/2022","A12FTSX85NQ8N9",200,1863579,4332.09999999963,"133","mirror",0,1,"CR",TRUE,TRUE
1,"detect-chase","05/17/2022","A12HLLXWOQJ14Q",1,131251,3118.80000001192,"58","mirror",1,0,"FA",TRUE,TRUE
1,"detect-chase","05/17/2022","A12HLLXWOQJ14Q",2,136278,3005.20000001788,"211","chase",0,0,"Ms",TRUE,TRUE
1,"detect-chase","05/17/2022","A12HLLXWOQJ14Q",3,141329,3029.5,"158","chase",1,1,"Hit",TRUE,TRUE
1,"detect-chase","05/17/2022","A12HLLXWOQJ14Q",4,147076,3700.60000002384,"102","chase",0,0,"Ms",TRUE,TRUE
1,"detect-chase","05/17/2022","A12HLLXWOQJ14Q",5,152553,3449.5,"272","chase",1,1,"Hit",TRUE,TRUE
1,"detect-chase","05/17/2022","A12HLLXWOQJ14Q",6,157446,2877.5,"211","mirror",1,0,"FA",TRUE,TRUE
1,"detect-chase","05/17/2022","A12HLLXWOQJ14Q",7,162343,2876.5,"58","chase",1,1,"Hit",TRUE,TRUE
1,"detect-chase","05/17/2022","A12HLLXWOQJ14Q",8,167156,2798.69999998808,"199","mirror",0,1,"CR",TRUE,TRUE
1,"detect-chase","05/17/2022","A12HLLXWOQJ14Q",9,173074,3893.09999999404,"158","mirror",1,0,"FA",TRUE,TRUE
1,"detect-chase","05/17/2022","A12HLLXWOQJ14Q",10,178938,3845.5,"102","mirror",1,0,"FA",TRUE,TRUE
1,"detect-chase","05/17/2022","A12HLLXWOQJ14Q",11,184538,3587.69999998808,"272","mirror",1,0,"FA",TRUE,TRUE
1,"detect-chase","05/17/2022","A12HLLXWOQJ14Q",12,189856,3290,"199","chase",1,1,"Hit",TRUE,TRUE
1,"detect-chase","05/17/2022","A12HLLXWOQJ14Q",13,203586,3225.40000000596,"130","mirror",1,0,"FA",TRUE,TRUE
1,"detect-chase","05/17/2022","A12HLLXWOQJ14Q",14,208305,3704.79999998212,"79","chase",1,1,"Hit",TRUE,TRUE
1,"detect-chase","05/17/2022","A12HLLXWOQJ14Q",15,212581,3264.79999998212,"175","mirror",1,0,"FA",TRUE,TRUE
1,"detect-chase","05/17/2022","A12HLLXWOQJ14Q",16,217687,4095,"160","mirror",0,1,"CR",TRUE,TRUE
1,"detect-chase","05/17/2022","A12HLLXWOQJ14Q",17,221417,2703.20000001788,"135","chase",1,1,"Hit",TRUE,TRUE
1,"detect-chase","05/17/2022","A12HLLXWOQJ14Q",18,224977,2543.5,"242","mirror",0,1,"CR",TRUE,TRUE
1,"detect-chase","05/17/2022","A12HLLXWOQJ14Q",19,228431,2438.29999998212,"245","mirror",1,0,"FA",TRUE,TRUE
1,"detect-chase","05/17/2022","A12HLLXWOQJ14Q",20,231340,1905.39999997616,"125","mirror",1,0,"FA",TRUE,TRUE
1,"detect-chase","05/17/2022","A12HLLXWOQJ14Q",21,235041,2686.59999999404,"245","chase",0,0,"Ms",TRUE,TRUE
1,"detect-chase","05/17/2022","A12HLLXWOQJ14Q",22,239214,3156.5,"93","mirror",1,0,"FA",TRUE,TRUE
1,"detect-chase","05/17/2022","A12HLLXWOQJ14Q",23,243517,3291.90000000596,"147","chase",1,1,"Hit",TRUE,TRUE
1,"detect-chase","05/17/2022","A12HLLXWOQJ14Q",24,247287,2755.69999998808,"116","mirror",0,1,"CR",TRUE,TRUE
1,"detect-chase","05/17/2022","A12HLLXWOQJ14Q",25,251267,2964.39999997616,"186","chase",1,1,"Hit",TRUE,TRUE
1,"detect-chase","05/17/2022","A12HLLXWOQJ14Q",26,255262,2984.5,"161","chase",1,1,"Hit",TRUE,TRUE
1,"detect-chase","05/17/2022","A12HLLXWOQJ14Q",27,259583,3314.40000000596,"248","mirror",0,1,"CR",TRUE,TRUE
1,"detect-chase","05/17/2022","A12HLLXWOQJ14Q",28,263162,2570.09999999404,"248","chase",1,1,"Hit",TRUE,TRUE
1,"detect-chase","05/17/2022","A12HLLXWOQJ14Q",29,267290,3121.69999998808,"149","chase",1,1,"Hit",TRUE,TRUE
1,"detect-chase","05/17/2022","A12HLLXWOQJ14Q",30,270738,2428.90000000596,"75","chase",1,1,"Hit",TRUE,TRUE
1,"detect-chase","05/17/2022","A12HLLXWOQJ14Q",31,274155,2401.20000001788,"154","chase",0,0,"Ms",TRUE,TRUE
1,"detect-chase","05/17/2022","A12HLLXWOQJ14Q",32,277258,2088.09999999404,"254","chase",1,1,"Hit",TRUE,TRUE
1,"detect-chase","05/17/2022","A12HLLXWOQJ14Q",33,281141,2865.30000001192,"229","chase",1,1,"Hit",TRUE,TRUE
1,"detect-chase","05/17/2022","A12HLLXWOQJ14Q",34,285188,3039,"247","mirror",0,1,"CR",TRUE,TRUE
1,"detect-chase","05/17/2022","A12HLLXWOQJ14Q",35,288962,2756.80000001192,"273","mirror",1,0,"FA",TRUE,TRUE
1,"detect-chase","05/17/2022","A12HLLXWOQJ14Q",36,293090,3111.30000001192,"88","mirror",1,0,"FA",TRUE,TRUE
1,"detect-chase","05/17/2022","A12HLLXWOQJ14Q",37,297793,3688.19999998808,"63","mirror",1,0,"FA",TRUE,TRUE
1,"detect-chase","05/17/2022","A12HLLXWOQJ14Q",38,301200,2398.80000001192,"139","mirror",0,1,"CR",TRUE,TRUE
1,"detect-chase","05/17/2022","A12HLLXWOQJ14Q",39,305642,3434,"1","chase",1,1,"Hit",TRUE,TRUE
1,"detect-chase","05/17/2022","A12HLLXWOQJ14Q",40,310452,3795.69999998808,"79","mirror",0,1,"CR",TRUE,TRUE
1,"detect-chase","05/17/2022","A12HLLXWOQJ14Q",41,315753,4282.79999998212,"214","mirror",1,0,"FA",TRUE,TRUE
1,"detect-chase","05/17/2022","A12HLLXWOQJ14Q",42,320295,3536.90000000596,"127","chase",1,1,"Hit",TRUE,TRUE
1,"detect-chase","05/17/2022","A12HLLXWOQJ14Q",43,324430,3118.5,"173","mirror",0,1,"CR",TRUE,TRUE
1,"detect-chase","05/17/2022","A12HLLXWOQJ14Q",44,327681,2232.5,"280","mirror",1,0,"FA",TRUE,TRUE
1,"detect-chase","05/17/2022","A12HLLXWOQJ14Q",45,332579,3881.19999998808,"271","mirror",1,0,"FA",TRUE,TRUE
1,"detect-chase","05/17/2022","A12HLLXWOQJ14Q",46,336470,2886.69999998808,"84","mirror",0,1,"CR",TRUE,TRUE
1,"detect-chase","05/17/2022","A12HLLXWOQJ14Q",47,340450,2962.20000001788,"216","chase",1,1,"Hit",TRUE,TRUE
1,"detect-chase","05/17/2022","A12HLLXWOQJ14Q",48,344462,3004,"133","chase",1,1,"Hit",TRUE,TRUE
1,"detect-chase","05/17/2022","A12HLLXWOQJ14Q",49,348130,2647.5,"21","mirror",0,1,"CR",TRUE,TRUE
1,"detect-chase","05/17/2022","A12HLLXWOQJ14Q",50,351491,2348.5,"150","chase",0,0,"Ms",TRUE,TRUE
1,"detect-chase","05/17/2022","A12HLLXWOQJ14Q",51,355051,2555.70000001788,"273","chase",1,1,"Hit",TRUE,TRUE
1,"detect-chase","05/17/2022","A12HLLXWOQJ14Q",52,358943,2873,"7","chase",1,1,"Hit",TRUE,TRUE
1,"detect-chase","05/17/2022","A12HLLXWOQJ14Q",53,362951,3002.40000000596,"163","mirror",0,1,"CR",TRUE,TRUE
1,"detect-chase","05/17/2022","A12HLLXWOQJ14Q",54,366233,2266.59999999404,"63","chase",1,1,"Hit",TRUE,TRUE
1,"detect-chase","05/17/2022","A12HLLXWOQJ14Q",55,370805,3555.40000000596,"50","mirror",1,0,"FA",TRUE,TRUE
1,"detect-chase","05/17/2022","A12HLLXWOQJ14Q",56,374962,3149.20000001788,"60","chase",0,0,"Ms",TRUE,TRUE
1,"detect-chase","05/17/2022","A12HLLXWOQJ14Q",57,379484,3510.09999999404,"163","chase",1,1,"Hit",TRUE,TRUE
1,"detect-chase","05/17/2022","A12HLLXWOQJ14Q",58,383901,3401.70000001788,"127","mirror",0,1,"CR",TRUE,TRUE
1,"detect-chase","05/17/2022","A12HLLXWOQJ14Q",59,388595,3675.40000000596,"269","mirror",0,1,"CR",TRUE,TRUE
1,"detect-chase","05/17/2022","A12HLLXWOQJ14Q",60,392410,2795.89999997616,"36","chase",1,1,"Hit",TRUE,TRUE
1,"detect-chase","05/17/2022","A12HLLXWOQJ14Q",61,396429,3003,"295","chase",1,1,"Hit",TRUE,TRUE
1,"detect-chase","05/17/2022","A12HLLXWOQJ14Q",62,400625,3193.19999998808,"135","mirror",0,1,"CR",TRUE,TRUE
1,"detect-chase","05/17/2022","A12HLLXWOQJ14Q",63,404547,2904.80000001192,"207","chase",1,1,"Hit",TRUE,TRUE
1,"detect-chase","05/17/2022","A12HLLXWOQJ14Q",64,407701,2145.20000001788,"192","mirror",1,0,"FA",TRUE,TRUE
1,"detect-chase","05/17/2022","A12HLLXWOQJ14Q",65,411495,2786.59999999404,"183","chase",0,0,"Ms",TRUE,TRUE
1,"detect-chase","05/17/2022","A12HLLXWOQJ14Q",66,414365,1861.19999998808,"112","chase",1,1,"Hit",TRUE,TRUE
1,"detect-chase","05/17/2022","A12HLLXWOQJ14Q",67,417961,2585.19999998808,"193","chase",1,1,"Hit",TRUE,TRUE
1,"detect-chase","05/17/2022","A12HLLXWOQJ14Q",68,422360,3395.20000001788,"247","chase",0,0,"Ms",TRUE,TRUE
1,"detect-chase","05/17/2022","A12HLLXWOQJ14Q",69,426163,2788.80000001192,"198","chase",0,0,"Ms",TRUE,TRUE
1,"detect-chase","05/17/2022","A12HLLXWOQJ14Q",70,431136,3959.89999997616,"198","mirror",1,0,"FA",TRUE,TRUE
1,"detect-chase","05/17/2022","A12HLLXWOQJ14Q",71,447238,15087.1000000238,"147","mirror",1,0,"FA",FALSE,TRUE
1,"detect-chase","05/17/2022","A12HLLXWOQJ14Q",72,451915,3656.5,"214","chase",1,1,"Hit",TRUE,TRUE
1,"detect-chase","05/17/2022","A12HLLXWOQJ14Q",73,460194,7263,"186","mirror",0,1,"CR",TRUE,TRUE
1,"detect-chase","05/17/2022","A12HLLXWOQJ14Q",74,463729,2524.5,"61","chase",1,1,"Hit",TRUE,TRUE
1,"detect-chase","05/17/2022","A12HLLXWOQJ14Q",75,467699,2949.90000000596,"49","mirror",1,0,"FA",TRUE,TRUE
1,"detect-chase","05/17/2022","A12HLLXWOQJ14Q",76,471144,2426.80000001192,"206","chase",1,1,"Hit",TRUE,TRUE
1,"detect-chase","05/17/2022","A12HLLXWOQJ14Q",77,474069,1915.70000001788,"142","mirror",1,0,"FA",TRUE,TRUE
1,"detect-chase","05/17/2022","A12HLLXWOQJ14Q",78,477142,2054.59999999404,"283","mirror",1,0,"FA",TRUE,TRUE
1,"detect-chase","05/17/2022","A12HLLXWOQJ14Q",79,479843,1688.79999998212,"125","chase",1,1,"Hit",TRUE,TRUE
1,"detect-chase","05/17/2022","A12HLLXWOQJ14Q",80,483636,2788,"168","chase",1,1,"Hit",TRUE,TRUE
1,"detect-chase","05/17/2022","A12HLLXWOQJ14Q",81,486964,2322.19999998808,"121","chase",0,0,"Ms",TRUE,TRUE
1,"detect-chase","05/17/2022","A12HLLXWOQJ14Q",82,490448,2466.09999999404,"142","chase",1,1,"Hit",TRUE,TRUE
1,"detect-chase","05/17/2022","A12HLLXWOQJ14Q",83,493125,1668.30000001192,"159","mirror",1,0,"FA",TRUE,TRUE
1,"detect-chase","05/17/2022","A12HLLXWOQJ14Q",84,495940,1808.09999999404,"116","chase",1,1,"Hit",TRUE,TRUE
1,"detect-chase","05/17/2022","A12HLLXWOQJ14Q",85,500461,3517.29999998212,"140","mirror",1,0,"FA",TRUE,TRUE
1,"detect-chase","05/17/2022","A12HLLXWOQJ14Q",86,503583,2102.90000000596,"6","chase",1,1,"Hit",TRUE,TRUE
1,"detect-chase","05/17/2022","A12HLLXWOQJ14Q",87,506954,2358.5,"54","mirror",0,1,"CR",TRUE,TRUE
1,"detect-chase","05/17/2022","A12HLLXWOQJ14Q",88,510027,2057.80000001192,"294","chase",1,1,"Hit",TRUE,TRUE
1,"detect-chase","05/17/2022","A12HLLXWOQJ14Q",89,513425,2385.29999998212,"207","mirror",0,1,"CR",TRUE,TRUE
1,"detect-chase","05/17/2022","A12HLLXWOQJ14Q",90,516549,2116.80000001192,"77","chase",1,1,"Hit",TRUE,TRUE
1,"detect-chase","05/17/2022","A12HLLXWOQJ14Q",91,519707,2146.09999999404,"159","chase",0,0,"Ms",TRUE,TRUE
1,"detect-chase","05/17/2022","A12HLLXWOQJ14Q",92,523422,2710.29999998212,"263","chase",1,1,"Hit",TRUE,TRUE
1,"detect-chase","05/17/2022","A12HLLXWOQJ14Q",93,527337,2905.5,"156","mirror",1,0,"FA",TRUE,TRUE
1,"detect-chase","05/17/2022","A12HLLXWOQJ14Q",94,530703,2354.09999999404,"43","mirror",1,0,"FA",TRUE,TRUE
1,"detect-chase","05/17/2022","A12HLLXWOQJ14Q",95,534688,2974,"239","chase",1,1,"Hit",TRUE,TRUE
1,"detect-chase","05/17/2022","A12HLLXWOQJ14Q",96,537955,2248.79999998212,"75","mirror",0,1,"CR",TRUE,TRUE
1,"detect-chase","05/17/2022","A12HLLXWOQJ14Q",97,541810,2844.19999998808,"121","mirror",0,1,"CR",TRUE,TRUE
1,"detect-chase","05/17/2022","A12HLLXWOQJ14Q",98,545639,2819.40000000596,"179","mirror",0,1,"CR",TRUE,TRUE
1,"detect-chase","05/17/2022","A12HLLXWOQJ14Q",99,548364,1709.30000001192,"36","mirror",1,0,"FA",TRUE,TRUE
1,"detect-chase","05/17/2022","A12HLLXWOQJ14Q",100,551517,2133.90000000596,"50","chase",1,1,"Hit",TRUE,TRUE
1,"detect-chase","05/17/2022","A12HLLXWOQJ14Q",101,555421,2887.09999999404,"25","chase",1,1,"Hit",TRUE,TRUE
1,"detect-chase","05/17/2022","A12HLLXWOQJ14Q",102,559251,2813.59999999404,"249","mirror",0,1,"CR",TRUE,TRUE
1,"detect-chase","05/17/2022","A12HLLXWOQJ14Q",103,563508,3236.80000001192,"25","mirror",0,1,"CR",TRUE,TRUE
1,"detect-chase","05/17/2022","A12HLLXWOQJ14Q",104,566829,2312.40000000596,"216","mirror",1,0,"FA",TRUE,TRUE
1,"detect-chase","05/17/2022","A12HLLXWOQJ14Q",105,570687,2841.40000000596,"133","mirror",0,1,"CR",TRUE,TRUE
1,"detect-chase","05/17/2022","A12HLLXWOQJ14Q",106,574679,2974.20000001788,"96","mirror",1,0,"FA",TRUE,TRUE
1,"detect-chase","05/17/2022","A12HLLXWOQJ14Q",107,578509,2821.80000001192,"74","chase",0,0,"Ms",TRUE,TRUE
1,"detect-chase","05/17/2022","A12HLLXWOQJ14Q",108,582314,2791,"184","chase",1,1,"Hit",TRUE,TRUE
1,"detect-chase","05/17/2022","A12HLLXWOQJ14Q",109,585578,2245.90000000596,"215","mirror",0,1,"CR",TRUE,TRUE
1,"detect-chase","05/17/2022","A12HLLXWOQJ14Q",110,588745,2148.29999998212,"288","mirror",0,1,"CR",TRUE,TRUE
1,"detect-chase","05/17/2022","A12HLLXWOQJ14Q",111,592703,2945.30000001192,"120","mirror",1,0,"FA",TRUE,TRUE
1,"detect-chase","05/17/2022","A12HLLXWOQJ14Q",112,595772,2050.09999999404,"54","chase",1,1,"Hit",TRUE,TRUE
1,"detect-chase","05/17/2022","A12HLLXWOQJ14Q",113,599503,2714.79999998212,"287","chase",0,0,"Ms",TRUE,TRUE
1,"detect-chase","05/17/2022","A12HLLXWOQJ14Q",114,603340,2829.39999997616,"287","mirror",0,1,"CR",TRUE,TRUE
1,"detect-chase","05/17/2022","A12HLLXWOQJ14Q",115,606076,1726.09999999404,"215","chase",1,1,"Hit",TRUE,TRUE
1,"detect-chase","05/17/2022","A12HLLXWOQJ14Q",116,609947,2851.29999998212,"295","mirror",1,0,"FA",TRUE,TRUE
1,"detect-chase","05/17/2022","A12HLLXWOQJ14Q",117,613732,2782.29999998212,"212","mirror",1,0,"FA",TRUE,TRUE
1,"detect-chase","05/17/2022","A12HLLXWOQJ14Q",118,617602,2862.40000000596,"231","chase",1,1,"Hit",TRUE,TRUE
1,"detect-chase","05/17/2022","A12HLLXWOQJ14Q",119,620917,2308.90000000596,"202","mirror",0,1,"CR",TRUE,TRUE
1,"detect-chase","05/17/2022","A12HLLXWOQJ14Q",120,624483,2561.90000000596,"7","mirror",0,1,"CR",TRUE,TRUE
1,"detect-chase","05/17/2022","A12HLLXWOQJ14Q",121,628150,2649,"74","mirror",0,1,"CR",TRUE,TRUE
1,"detect-chase","05/17/2022","A12HLLXWOQJ14Q",122,632154,2989.5,"294","mirror",1,0,"FA",TRUE,TRUE
1,"detect-chase","05/17/2022","A12HLLXWOQJ14Q",123,635960,2793.09999999404,"168","mirror",1,0,"FA",TRUE,TRUE
1,"detect-chase","05/17/2022","A12HLLXWOQJ14Q",124,639534,2562.5,"180","mirror",1,0,"FA",TRUE,TRUE
1,"detect-chase","05/17/2022","A12HLLXWOQJ14Q",125,646067,5521.59999999404,"154","mirror",0,1,"CR",TRUE,TRUE
1,"detect-chase","05/17/2022","A12HLLXWOQJ14Q",126,650147,3060.29999998212,"1","mirror",1,0,"FA",TRUE,TRUE
1,"detect-chase","05/17/2022","A12HLLXWOQJ14Q",127,654648,3490.89999997616,"49","chase",1,1,"Hit",TRUE,TRUE
1,"detect-chase","05/17/2022","A12HLLXWOQJ14Q",128,656829,1171.5,"259","chase",1,1,"Hit",TRUE,TRUE
1,"detect-chase","05/17/2022","A12HLLXWOQJ14Q",129,659603,1759.30000001192,"239","mirror",1,0,"FA",TRUE,TRUE
1,"detect-chase","05/17/2022","A12HLLXWOQJ14Q",130,662605,1984.90000000596,"96","chase",1,1,"Hit",TRUE,TRUE
1,"detect-chase","05/17/2022","A12HLLXWOQJ14Q",131,665712,2100.5,"188","mirror",0,1,"CR",TRUE,TRUE
1,"detect-chase","05/17/2022","A12HLLXWOQJ14Q",132,668663,1931.60000002384,"179","chase",1,1,"Hit",TRUE,TRUE
1,"detect-chase","05/17/2022","A12HLLXWOQJ14Q",133,671597,1922.20000001788,"219","chase",0,0,"Ms",TRUE,TRUE
1,"detect-chase","05/17/2022","A12HLLXWOQJ14Q",134,675754,3141.5,"254","mirror",1,0,"FA",TRUE,TRUE
1,"detect-chase","05/17/2022","A12HLLXWOQJ14Q",135,678948,2173.69999998808,"269","chase",0,0,"Ms",TRUE,TRUE
1,"detect-chase","05/17/2022","A12HLLXWOQJ14Q",136,683031,3067.19999998808,"21","chase",0,0,"Ms",TRUE,TRUE
1,"detect-chase","05/17/2022","A12HLLXWOQJ14Q",137,686865,2816.79999998212,"76","mirror",0,1,"CR",TRUE,TRUE
1,"detect-chase","05/17/2022","A12HLLXWOQJ14Q",138,689725,1844.20000001788,"156","chase",1,1,"Hit",TRUE,TRUE
1,"detect-chase","05/17/2022","A12HLLXWOQJ14Q",139,692845,2105.59999999404,"208","chase",1,1,"Hit",TRUE,TRUE
1,"detect-chase","05/17/2022","A12HLLXWOQJ14Q",140,696022,2171.59999999404,"210","mirror",0,1,"CR",TRUE,TRUE
1,"detect-chase","05/17/2022","A12HLLXWOQJ14Q",141,698777,1748.59999999404,"84","chase",1,1,"Hit",TRUE,TRUE
1,"detect-chase","05/17/2022","A12HLLXWOQJ14Q",142,700917,1120.29999998212,"149","mirror",1,0,"FA",TRUE,TRUE
