experiment,version,interview_date,task,PROLIFIC_PID,workerId,identifier,first,trial_num,time_elapsed,reaction_time,trial_id,condition,choice,correct,confidence,cells,selected
2,detect-wolf,04/25/2023,wolf,558a9729fdf99b6567d005ab,NA,558a9729fdf99b6567d005ab_wolf,wolf,1,169347,1187.5,112,chase,wolf,1,3,Hit,wolf
2,detect-wolf,04/25/2023,wolf,558a9729fdf99b6567d005ab,NA,558a9729fdf99b6567d005ab_wolf,wolf,2,176037,1810.4,131,mirror,dist,0,1,CR,dist5
2,detect-wolf,04/25/2023,wolf,558a9729fdf99b6567d005ab,NA,558a9729fdf99b6567d005ab_wolf,wolf,3,182019,789.1,141,mirror,sheep,0,3,CR,sheep
2,detect-wolf,04/25/2023,wolf,558a9729fdf99b6567d005ab,NA,558a9729fdf99b6567d005ab_wolf,wolf,4,188713,1497.8,222,mirror,dist,0,1,CR,dist5
2,detect-wolf,04/25/2023,wolf,558a9729fdf99b6567d005ab,NA,558a9729fdf99b6567d005ab_wolf,wolf,5,195707,1497.2,192,chase,wolf,1,3,Hit,wolf
2,detect-wolf,04/25/2023,wolf,558a9729fdf99b6567d005ab,NA,558a9729fdf99b6567d005ab_wolf,wolf,6,202993,1953.6,153,mirror,dist,0,1,CR,dist6
2,detect-wolf,04/25/2023,wolf,558a9729fdf99b6567d005ab,NA,558a9729fdf99b6567d005ab_wolf,wolf,7,209301,1475.3,190,mirror,dist,0,1,CR,dist4
2,detect-wolf,04/25/2023,wolf,558a9729fdf99b6567d005ab,NA,558a9729fdf99b6567d005ab_wolf,wolf,8,215470,1018.6,235,chase,wolf,1,4,Hit,wolf
2,detect-wolf,04/25/2023,wolf,558a9729fdf99b6567d005ab,NA,558a9729fdf99b6567d005ab_wolf,wolf,9,221901,1509.4,96,chase,sheep,0,1,Ms,sheep
2,detect-wolf,04/25/2023,wolf,558a9729fdf99b6567d005ab,NA,558a9729fdf99b6567d005ab_wolf,wolf,10,228331,1628.7,245,chase,sheep,0,1,Ms,sheep
2,detect-wolf,04/25/2023,wolf,558a9729fdf99b6567d005ab,NA,558a9729fdf99b6567d005ab_wolf,wolf,11,234383,954.4,184,chase,wolf,1,4,Hit,wolf
2,detect-wolf,04/25/2023,wolf,558a9729fdf99b6567d005ab,NA,558a9729fdf99b6567d005ab_wolf,wolf,12,240835,1352.9,148,mirror,sheep,0,3,CR,sheep
2,detect-wolf,04/25/2023,wolf,558a9729fdf99b6567d005ab,NA,558a9729fdf99b6567d005ab_wolf,wolf,13,246897,1260.9,169,mirror,wolf,1,2,FA,wolf
2,detect-wolf,04/25/2023,wolf,558a9729fdf99b6567d005ab,NA,558a9729fdf99b6567d005ab_wolf,wolf,14,253028,1187.9,150,chase,wolf,1,2,Hit,wolf
2,detect-wolf,04/25/2023,wolf,558a9729fdf99b6567d005ab,NA,558a9729fdf99b6567d005ab_wolf,wolf,15,259327,1547.3,183,mirror,dist,0,1,CR,dist3
2,detect-wolf,04/25/2023,wolf,558a9729fdf99b6567d005ab,NA,558a9729fdf99b6567d005ab_wolf,wolf,16,265976,1815.3,201,chase,sheep,0,2,Ms,sheep
2,detect-wolf,04/25/2023,wolf,558a9729fdf99b6567d005ab,NA,558a9729fdf99b6567d005ab_wolf,wolf,17,271792,1025,118,mirror,wolf,1,1,FA,wolf
2,detect-wolf,04/25/2023,wolf,558a9729fdf99b6567d005ab,NA,558a9729fdf99b6567d005ab_wolf,wolf,18,277792,1020.4,195,mirror,dist,0,2,CR,dist3
2,detect-wolf,04/25/2023,wolf,558a9729fdf99b6567d005ab,NA,558a9729fdf99b6567d005ab_wolf,wolf,19,284216,1054.5,109,chase,wolf,1,4,Hit,wolf
2,detect-wolf,04/25/2023,wolf,558a9729fdf99b6567d005ab,NA,558a9729fdf99b6567d005ab_wolf,wolf,20,290691,1730.8,244,mirror,dist,0,1,CR,dist5
2,detect-wolf,04/25/2023,wolf,558a9729fdf99b6567d005ab,NA,558a9729fdf99b6567d005ab_wolf,wolf,21,296993,1211.1,230,mirror,wolf,1,2,FA,wolf
2,detect-wolf,04/25/2023,wolf,558a9729fdf99b6567d005ab,NA,558a9729fdf99b6567d005ab_wolf,wolf,22,303211,1473.4,99,mirror,dist,0,1,CR,dist2
2,detect-wolf,04/25/2023,wolf,558a9729fdf99b6567d005ab,NA,558a9729fdf99b6567d005ab_wolf,wolf,23,310030,1330.1,2,mirror,wolf,1,2,FA,wolf
2,detect-wolf,04/25/2023,wolf,558a9729fdf99b6567d005ab,NA,558a9729fdf99b6567d005ab_wolf,wolf,24,316134,1277.8,22,chase,wolf,1,3,Hit,wolf
2,detect-wolf,04/25/2023,wolf,558a9729fdf99b6567d005ab,NA,558a9729fdf99b6567d005ab_wolf,wolf,25,322992,2023.7,265,chase,dist,0,1,Ms,dist6
2,detect-wolf,04/25/2023,wolf,558a9729fdf99b6567d005ab,NA,558a9729fdf99b6567d005ab_wolf,wolf,26,329086,1303.8,212,mirror,wolf,1,3,FA,wolf
2,detect-wolf,04/25/2023,wolf,558a9729fdf99b6567d005ab,NA,558a9729fdf99b6567d005ab_wolf,wolf,27,334735,845.3,224,chase,wolf,1,2,Hit,wolf
2,detect-wolf,04/25/2023,wolf,558a9729fdf99b6567d005ab,NA,558a9729fdf99b6567d005ab_wolf,wolf,28,340935,1311.6,269,mirror,dist,0,1,CR,dist2
2,detect-wolf,04/25/2023,wolf,558a9729fdf99b6567d005ab,NA,558a9729fdf99b6567d005ab_wolf,wolf,29,347026,879.7,294,chase,dist,0,3,Ms,dist4
2,detect-wolf,04/25/2023,wolf,558a9729fdf99b6567d005ab,NA,558a9729fdf99b6567d005ab_wolf,wolf,30,353109,1274.6,3,chase,wolf,1,3,Hit,wolf
2,detect-wolf,04/25/2023,wolf,558a9729fdf99b6567d005ab,NA,558a9729fdf99b6567d005ab_wolf,wolf,31,358850,967.6,25,mirror,wolf,1,2,FA,wolf
2,detect-wolf,04/25/2023,wolf,558a9729fdf99b6567d005ab,NA,558a9729fdf99b6567d005ab_wolf,wolf,32,365060,1461,284,chase,wolf,1,1,Hit,wolf
2,detect-wolf,04/25/2023,wolf,558a9729fdf99b6567d005ab,NA,558a9729fdf99b6567d005ab_wolf,wolf,33,371496,934.9,34,chase,dist,0,3,Ms,dist3
2,detect-wolf,04/25/2023,wolf,558a9729fdf99b6567d005ab,NA,558a9729fdf99b6567d005ab_wolf,wolf,34,377519,1297.5,26,chase,dist,0,1,Ms,dist3
2,detect-wolf,04/25/2023,wolf,558a9729fdf99b6567d005ab,NA,558a9729fdf99b6567d005ab_wolf,wolf,35,383329,1133.5,88,mirror,dist,0,1,CR,dist3
2,detect-wolf,04/25/2023,wolf,558a9729fdf99b6567d005ab,NA,558a9729fdf99b6567d005ab_wolf,wolf,36,388982,986.7,4,mirror,dist,0,1,CR,dist6
2,detect-wolf,04/25/2023,wolf,558a9729fdf99b6567d005ab,NA,558a9729fdf99b6567d005ab_wolf,wolf,37,395008,867.6,147,chase,wolf,1,2,Hit,wolf
2,detect-wolf,04/25/2023,wolf,558a9729fdf99b6567d005ab,NA,558a9729fdf99b6567d005ab_wolf,wolf,38,400986,1018.8,18,mirror,sheep,0,3,CR,sheep
2,detect-wolf,04/25/2023,wolf,558a9729fdf99b6567d005ab,NA,558a9729fdf99b6567d005ab_wolf,wolf,39,407587,990.1,243,mirror,dist,0,4,CR,dist3
2,detect-wolf,04/25/2023,wolf,558a9729fdf99b6567d005ab,NA,558a9729fdf99b6567d005ab_wolf,wolf,40,413587,1202,89,mirror,wolf,1,3,FA,wolf
2,detect-wolf,04/25/2023,wolf,558a9729fdf99b6567d005ab,NA,558a9729fdf99b6567d005ab_wolf,wolf,41,419492,1121.9,272,mirror,dist,0,2,CR,dist6
2,detect-wolf,04/25/2023,wolf,558a9729fdf99b6567d005ab,NA,558a9729fdf99b6567d005ab_wolf,wolf,42,426110,1321.6,10,mirror,dist,0,2,CR,dist2
2,detect-wolf,04/25/2023,wolf,558a9729fdf99b6567d005ab,NA,558a9729fdf99b6567d005ab_wolf,wolf,43,432049,1151.6,209,chase,dist,0,2,Ms,dist4
2,detect-wolf,04/25/2023,wolf,558a9729fdf99b6567d005ab,NA,558a9729fdf99b6567d005ab_wolf,wolf,44,439037,1748.1,196,mirror,dist,0,4,CR,dist4
2,detect-wolf,04/25/2023,wolf,558a9729fdf99b6567d005ab,NA,558a9729fdf99b6567d005ab_wolf,wolf,45,444810,1057,283,mirror,dist,0,2,CR,dist6
2,detect-wolf,04/25/2023,wolf,558a9729fdf99b6567d005ab,NA,558a9729fdf99b6567d005ab_wolf,wolf,46,452224,1506.6,267,mirror,dist,0,2,CR,dist5
2,detect-wolf,04/25/2023,wolf,558a9729fdf99b6567d005ab,NA,558a9729fdf99b6567d005ab_wolf,wolf,47,459961,2106.5,166,chase,wolf,1,3,Hit,wolf
2,detect-wolf,04/25/2023,wolf,558a9729fdf99b6567d005ab,NA,558a9729fdf99b6567d005ab_wolf,wolf,48,467083,1845.7,295,mirror,sheep,0,1,CR,sheep
2,detect-wolf,04/25/2023,wolf,558a9729fdf99b6567d005ab,NA,558a9729fdf99b6567d005ab_wolf,wolf,49,473110,1313.8,81,chase,dist,0,1,Ms,dist5
2,detect-wolf,04/25/2023,wolf,558a9729fdf99b6567d005ab,NA,558a9729fdf99b6567d005ab_wolf,wolf,50,479007,1114.8,240,mirror,dist,0,3,CR,dist5
2,detect-wolf,04/25/2023,wolf,558a9729fdf99b6567d005ab,NA,558a9729fdf99b6567d005ab_wolf,wolf,51,486064,1094.9,16,chase,wolf,1,4,Hit,wolf
2,detect-wolf,04/25/2023,wolf,558a9729fdf99b6567d005ab,NA,558a9729fdf99b6567d005ab_wolf,wolf,52,492656,1078.6,145,chase,sheep,0,3,Ms,sheep
2,detect-wolf,04/25/2023,wolf,558a9729fdf99b6567d005ab,NA,558a9729fdf99b6567d005ab_wolf,wolf,53,499545,1712.8,11,mirror,dist,0,1,CR,dist2
2,detect-wolf,04/25/2023,wolf,558a9729fdf99b6567d005ab,NA,558a9729fdf99b6567d005ab_wolf,wolf,54,505561,1239.3,111,mirror,sheep,0,1,CR,sheep
2,detect-wolf,04/25/2023,wolf,558a9729fdf99b6567d005ab,NA,558a9729fdf99b6567d005ab_wolf,wolf,55,511877,1689.9,172,chase,dist,0,2,Ms,dist3
2,detect-wolf,04/25/2023,wolf,558a9729fdf99b6567d005ab,NA,558a9729fdf99b6567d005ab_wolf,wolf,56,518388,1662.1,204,mirror,sheep,0,1,CR,sheep
2,detect-wolf,04/25/2023,wolf,558a9729fdf99b6567d005ab,NA,558a9729fdf99b6567d005ab_wolf,wolf,57,524514,1196.8,208,mirror,dist,0,2,CR,dist2
2,detect-wolf,04/25/2023,wolf,558a9729fdf99b6567d005ab,NA,558a9729fdf99b6567d005ab_wolf,wolf,58,530748,1292.7,19,chase,wolf,1,2,Hit,wolf
2,detect-wolf,04/25/2023,wolf,558a9729fdf99b6567d005ab,NA,558a9729fdf99b6567d005ab_wolf,wolf,59,537441,1860.9,98,chase,dist,0,1,Ms,dist5
2,detect-wolf,04/25/2023,wolf,558a9729fdf99b6567d005ab,NA,558a9729fdf99b6567d005ab_wolf,wolf,60,543513,1253.9,287,mirror,dist,0,3,CR,dist4
2,detect-wolf,04/25/2023,wolf,558a9729fdf99b6567d005ab,NA,558a9729fdf99b6567d005ab_wolf,wolf,61,549954,1126.3,251,mirror,dist,0,2,CR,dist5
2,detect-wolf,04/25/2023,wolf,558a9729fdf99b6567d005ab,NA,558a9729fdf99b6567d005ab_wolf,wolf,62,556397,1109.2,203,chase,wolf,1,5,Hit,wolf
2,detect-wolf,04/25/2023,wolf,558a9729fdf99b6567d005ab,NA,558a9729fdf99b6567d005ab_wolf,wolf,63,562669,1148.7,255,chase,wolf,1,4,Hit,wolf
2,detect-wolf,04/25/2023,wolf,558a9729fdf99b6567d005ab,NA,558a9729fdf99b6567d005ab_wolf,wolf,64,569189,1783.4,186,mirror,dist,0,1,CR,dist3
2,detect-wolf,04/25/2023,wolf,558a9729fdf99b6567d005ab,NA,558a9729fdf99b6567d005ab_wolf,wolf,65,575471,1490.6,123,chase,wolf,1,1,Hit,wolf
2,detect-wolf,04/25/2023,wolf,558a9729fdf99b6567d005ab,NA,558a9729fdf99b6567d005ab_wolf,wolf,66,581909,1211.5,193,chase,wolf,1,4,Hit,wolf
2,detect-wolf,04/25/2023,wolf,558a9729fdf99b6567d005ab,NA,558a9729fdf99b6567d005ab_wolf,wolf,67,588503,1257.3,103,chase,wolf,1,3,Hit,wolf
2,detect-wolf,04/25/2023,wolf,558a9729fdf99b6567d005ab,NA,558a9729fdf99b6567d005ab_wolf,wolf,68,594764,1594.1,229,mirror,dist,0,1,CR,dist5
2,detect-wolf,04/25/2023,wolf,558a9729fdf99b6567d005ab,NA,558a9729fdf99b6567d005ab_wolf,wolf,69,600942,868.6,126,chase,dist,0,3,Ms,dist3
2,detect-wolf,04/25/2023,wolf,558a9729fdf99b6567d005ab,NA,558a9729fdf99b6567d005ab_wolf,wolf,70,607704,1926,228,mirror,dist,0,2,CR,dist4
2,detect-wolf,04/25/2023,wolf,558a9729fdf99b6567d005ab,NA,558a9729fdf99b6567d005ab_wolf,wolf,71,614141,1058,80,chase,wolf,1,4,Hit,wolf
2,detect-wolf,04/25/2023,wolf,558a9729fdf99b6567d005ab,NA,558a9729fdf99b6567d005ab_wolf,wolf,72,620744,1396.4,29,chase,wolf,1,4,Hit,wolf
2,detect-wolf,04/25/2023,wolf,558a9729fdf99b6567d005ab,NA,558a9729fdf99b6567d005ab_wolf,wolf,73,626511,930.3,39,mirror,sheep,0,2,CR,sheep
2,detect-wolf,04/25/2023,wolf,558a9729fdf99b6567d005ab,NA,558a9729fdf99b6567d005ab_wolf,wolf,74,633179,1092.2,234,chase,dist,0,4,Ms,dist6
2,detect-wolf,04/25/2023,wolf,558a9729fdf99b6567d005ab,NA,558a9729fdf99b6567d005ab_wolf,wolf,75,639023,1212.5,206,chase,wolf,1,3,Hit,wolf
2,detect-wolf,04/25/2023,wolf,558a9729fdf99b6567d005ab,NA,558a9729fdf99b6567d005ab_wolf,wolf,76,645238,1414.1,5,mirror,dist,0,1,CR,dist3
2,detect-wolf,04/25/2023,wolf,558a9729fdf99b6567d005ab,NA,558a9729fdf99b6567d005ab_wolf,wolf,77,652250,1357.9,191,chase,dist,0,2,Ms,dist6
2,detect-wolf,04/25/2023,wolf,558a9729fdf99b6567d005ab,NA,558a9729fdf99b6567d005ab_wolf,wolf,78,658014,1024.7,8,mirror,dist,0,1,CR,dist4
2,detect-wolf,04/25/2023,wolf,558a9729fdf99b6567d005ab,NA,558a9729fdf99b6567d005ab_wolf,wolf,79,664580,1168.9,226,mirror,dist,0,3,CR,dist6
2,detect-wolf,04/25/2023,wolf,558a9729fdf99b6567d005ab,NA,558a9729fdf99b6567d005ab_wolf,wolf,80,672688,2059.5,293,chase,sheep,0,2,Ms,sheep
2,detect-wolf,04/25/2023,wolf,558a9729fdf99b6567d005ab,NA,558a9729fdf99b6567d005ab_wolf,wolf,81,678757,1005.9,91,mirror,dist,0,2,CR,dist1
2,detect-wolf,04/25/2023,wolf,558a9729fdf99b6567d005ab,NA,558a9729fdf99b6567d005ab_wolf,wolf,82,685012,1014.7,92,chase,wolf,1,3,Hit,wolf
2,detect-wolf,04/25/2023,wolf,558a9729fdf99b6567d005ab,NA,558a9729fdf99b6567d005ab_wolf,wolf,83,691325,1195.8,119,chase,wolf,1,3,Hit,wolf
2,detect-wolf,04/25/2023,wolf,558a9729fdf99b6567d005ab,NA,558a9729fdf99b6567d005ab_wolf,wolf,84,697170,1062.6,160,mirror,dist,0,2,CR,dist5
2,detect-wolf,04/25/2023,wolf,558a9729fdf99b6567d005ab,NA,558a9729fdf99b6567d005ab_wolf,wolf,85,703496,1049.4,32,chase,wolf,1,3,Hit,wolf
2,detect-wolf,04/25/2023,wolf,558a9729fdf99b6567d005ab,NA,558a9729fdf99b6567d005ab_wolf,wolf,86,710846,2711.9,28,mirror,dist,0,2,CR,dist1
2,detect-wolf,04/25/2023,wolf,558a9729fdf99b6567d005ab,NA,558a9729fdf99b6567d005ab_wolf,wolf,87,717270,1126.1,13,chase,wolf,1,4,Hit,wolf
2,detect-wolf,04/25/2023,wolf,558a9729fdf99b6567d005ab,NA,558a9729fdf99b6567d005ab_wolf,wolf,88,723409,974.9,154,mirror,sheep,0,5,CR,sheep
2,detect-wolf,04/25/2023,wolf,558a9729fdf99b6567d005ab,NA,558a9729fdf99b6567d005ab_wolf,wolf,89,729289,1099,132,mirror,dist,0,3,CR,dist3
2,detect-wolf,04/25/2023,wolf,558a9729fdf99b6567d005ab,NA,558a9729fdf99b6567d005ab_wolf,wolf,90,735243,1153.7,252,mirror,dist,0,3,CR,dist3
2,detect-wolf,04/25/2023,wolf,558a9729fdf99b6567d005ab,NA,558a9729fdf99b6567d005ab_wolf,wolf,91,741518,1108.7,104,chase,wolf,1,4,Hit,wolf
2,detect-wolf,04/25/2023,wolf,558a9729fdf99b6567d005ab,NA,558a9729fdf99b6567d005ab_wolf,wolf,92,747315,1022.2,21,mirror,dist,0,3,CR,dist1
2,detect-wolf,04/25/2023,wolf,558a9729fdf99b6567d005ab,NA,558a9729fdf99b6567d005ab_wolf,wolf,93,753190,1183,181,chase,dist,0,3,Ms,dist6
2,detect-wolf,04/25/2023,wolf,558a9729fdf99b6567d005ab,NA,558a9729fdf99b6567d005ab_wolf,wolf,94,759809,1378.6,296,chase,wolf,1,4,Hit,wolf
2,detect-wolf,04/25/2023,wolf,558a9729fdf99b6567d005ab,NA,558a9729fdf99b6567d005ab_wolf,wolf,95,766334,1243.1,237,chase,wolf,1,4,Hit,wolf
2,detect-wolf,04/25/2023,wolf,558a9729fdf99b6567d005ab,NA,558a9729fdf99b6567d005ab_wolf,wolf,96,772486,1093.7,174,chase,wolf,1,4,Hit,wolf
2,detect-wolf,04/25/2023,wolf,558a9729fdf99b6567d005ab,NA,558a9729fdf99b6567d005ab_wolf,wolf,97,778613,1052.9,280,chase,wolf,1,1,Hit,wolf
2,detect-wolf,04/25/2023,wolf,558a9729fdf99b6567d005ab,NA,558a9729fdf99b6567d005ab_wolf,wolf,98,786142,1451.4,279,chase,sheep,0,3,Ms,sheep
2,detect-wolf,04/25/2023,wolf,558a9729fdf99b6567d005ab,NA,558a9729fdf99b6567d005ab_wolf,wolf,99,792134,907.7,102,chase,dist,0,3,Ms,dist2
2,detect-wolf,04/25/2023,wolf,558a9729fdf99b6567d005ab,NA,558a9729fdf99b6567d005ab_wolf,wolf,100,799120,1493.4,256,mirror,sheep,0,1,CR,sheep
2,detect-wolf,04/25/2023,wolf,55b508f4fdf99b1c26c21c69,NA,55b508f4fdf99b1c26c21c69_wolf,wolf,1,224738,1438,270,chase,wolf,1,3,Hit,wolf
2,detect-wolf,04/25/2023,wolf,55b508f4fdf99b1c26c21c69,NA,55b508f4fdf99b1c26c21c69_wolf,wolf,2,231260,1070,42,chase,wolf,1,4,Hit,wolf
2,detect-wolf,04/25/2023,wolf,55b508f4fdf99b1c26c21c69,NA,55b508f4fdf99b1c26c21c69_wolf,wolf,3,238483,1934,45,chase,dist,0,2,Ms,dist1
2,detect-wolf,04/25/2023,wolf,55b508f4fdf99b1c26c21c69,NA,55b508f4fdf99b1c26c21c69_wolf,wolf,4,247630,1400,4,chase,wolf,1,4,Hit,wolf
2,detect-wolf,04/25/2023,wolf,55b508f4fdf99b1c26c21c69,NA,55b508f4fdf99b1c26c21c69_wolf,wolf,5,254467,1037,44,chase,wolf,1,3,Hit,wolf
2,detect-wolf,04/25/2023,wolf,55b508f4fdf99b1c26c21c69,NA,55b508f4fdf99b1c26c21c69_wolf,wolf,6,260955,1050,260,chase,wolf,1,4,Hit,wolf
2,detect-wolf,04/25/2023,wolf,55b508f4fdf99b1c26c21c69,NA,55b508f4fdf99b1c26c21c69_wolf,wolf,7,267676,1066,272,chase,dist,0,4,Ms,dist5
2,detect-wolf,04/25/2023,wolf,55b508f4fdf99b1c26c21c69,NA,55b508f4fdf99b1c26c21c69_wolf,wolf,8,274624,1553,23,chase,wolf,1,3,Hit,wolf
2,detect-wolf,04/25/2023,wolf,55b508f4fdf99b1c26c21c69,NA,55b508f4fdf99b1c26c21c69_wolf,wolf,9,281597,1295,273,chase,wolf,1,5,Hit,wolf
2,detect-wolf,04/25/2023,wolf,55b508f4fdf99b1c26c21c69,NA,55b508f4fdf99b1c26c21c69_wolf,wolf,10,288562,1021,258,chase,wolf,1,5,Hit,wolf
2,detect-wolf,04/25/2023,wolf,55b508f4fdf99b1c26c21c69,NA,55b508f4fdf99b1c26c21c69_wolf,wolf,11,295965,2023,36,chase,dist,0,1,Ms,dist2
2,detect-wolf,04/25/2023,wolf,55b508f4fdf99b1c26c21c69,NA,55b508f4fdf99b1c26c21c69_wolf,wolf,12,303699,2200,47,chase,wolf,1,1,Hit,wolf
2,detect-wolf,04/25/2023,wolf,55b508f4fdf99b1c26c21c69,NA,55b508f4fdf99b1c26c21c69_wolf,wolf,13,311330,2263,261,chase,sheep,0,1,Ms,sheep
2,detect-wolf,04/25/2023,wolf,55b508f4fdf99b1c26c21c69,NA,55b508f4fdf99b1c26c21c69_wolf,wolf,14,317872,944,263,chase,wolf,1,3,Hit,wolf
2,detect-wolf,04/25/2023,wolf,55b508f4fdf99b1c26c21c69,NA,55b508f4fdf99b1c26c21c69_wolf,wolf,15,325714,913,24,chase,wolf,1,4,Hit,wolf
2,detect-wolf,04/25/2023,wolf,55b508f4fdf99b1c26c21c69,NA,55b508f4fdf99b1c26c21c69_wolf,wolf,16,332844,1490,262,chase,wolf,1,2,Hit,wolf
2,detect-wolf,04/25/2023,wolf,55b508f4fdf99b1c26c21c69,NA,55b508f4fdf99b1c26c21c69_wolf,wolf,17,339329,1105,7,chase,wolf,1,4,Hit,wolf
2,detect-wolf,04/25/2023,wolf,55b508f4fdf99b1c26c21c69,NA,55b508f4fdf99b1c26c21c69_wolf,wolf,18,346625,1889,46,chase,wolf,1,2,Hit,wolf
2,detect-wolf,04/25/2023,wolf,55b508f4fdf99b1c26c21c69,NA,55b508f4fdf99b1c26c21c69_wolf,wolf,19,353851,1463,25,chase,wolf,1,2,Hit,wolf
2,detect-wolf,04/25/2023,wolf,55b508f4fdf99b1c26c21c69,NA,55b508f4fdf99b1c26c21c69_wolf,wolf,20,362113,2527,21,chase,dist,0,1,Ms,dist4
2,detect-wolf,04/25/2023,wolf,55b508f4fdf99b1c26c21c69,NA,55b508f4fdf99b1c26c21c69_wolf,wolf,21,368706,1187,264,chase,wolf,1,5,Hit,wolf
2,detect-wolf,04/25/2023,wolf,55b508f4fdf99b1c26c21c69,NA,55b508f4fdf99b1c26c21c69_wolf,wolf,22,375778,1708,22,chase,wolf,1,4,Hit,wolf
2,detect-wolf,04/25/2023,wolf,55b508f4fdf99b1c26c21c69,NA,55b508f4fdf99b1c26c21c69_wolf,wolf,23,382565,1081,20,chase,wolf,1,5,Hit,wolf
2,detect-wolf,04/25/2023,wolf,55b508f4fdf99b1c26c21c69,NA,55b508f4fdf99b1c26c21c69_wolf,wolf,24,389747,1714,265,chase,sheep,0,2,Ms,sheep
2,detect-wolf,04/25/2023,wolf,55b508f4fdf99b1c26c21c69,NA,55b508f4fdf99b1c26c21c69_wolf,wolf,25,397075,2012,274,chase,wolf,1,1,Hit,wolf
2,detect-wolf,04/25/2023,wolf,55b508f4fdf99b1c26c21c69,NA,55b508f4fdf99b1c26c21c69_wolf,wolf,26,404250,1887,278,chase,wolf,1,1,Hit,wolf
2,detect-wolf,04/25/2023,wolf,55b508f4fdf99b1c26c21c69,NA,55b508f4fdf99b1c26c21c69_wolf,wolf,27,411690,2144,19,chase,dist,0,1,Ms,dist1
2,detect-wolf,04/25/2023,wolf,55b508f4fdf99b1c26c21c69,NA,55b508f4fdf99b1c26c21c69_wolf,wolf,28,418124,998,18,chase,wolf,1,4,Hit,wolf
2,detect-wolf,04/25/2023,wolf,55b508f4fdf99b1c26c21c69,NA,55b508f4fdf99b1c26c21c69_wolf,wolf,29,425441,1899,277,chase,wolf,1,1,Hit,wolf
2,detect-wolf,04/25/2023,wolf,55b508f4fdf99b1c26c21c69,NA,55b508f4fdf99b1c26c21c69_wolf,wolf,30,433093,1959,275,chase,wolf,1,2,Hit,wolf
2,detect-wolf,04/25/2023,wolf,55b508f4fdf99b1c26c21c69,NA,55b508f4fdf99b1c26c21c69_wolf,wolf,31,439792,1090,26,chase,wolf,1,4,Hit,wolf
2,detect-wolf,04/25/2023,wolf,55b508f4fdf99b1c26c21c69,NA,55b508f4fdf99b1c26c21c69_wolf,wolf,32,447060,1751,48,chase,wolf,1,5,Hit,wolf
2,detect-wolf,04/25/2023,wolf,55b508f4fdf99b1c26c21c69,NA,55b508f4fdf99b1c26c21c69_wolf,wolf,33,453678,1220,279,chase,wolf,1,4,Hit,wolf
2,detect-wolf,04/25/2023,wolf,55b508f4fdf99b1c26c21c69,NA,55b508f4fdf99b1c26c21c69_wolf,wolf,34,460792,1641,276,chase,wolf,1,3,Hit,wolf
2,detect-wolf,04/25/2023,wolf,55b508f4fdf99b1c26c21c69,NA,55b508f4fdf99b1c26c21c69_wolf,wolf,35,468706,2356,35,chase,dist,0,2,Ms,dist1
2,detect-wolf,04/25/2023,wolf,55b508f4fdf99b1c26c21c69,NA,55b508f4fdf99b1c26c21c69_wolf,wolf,36,477209,2111,280,chase,wolf,1,3,Hit,wolf
2,detect-wolf,04/25/2023,wolf,55b508f4fdf99b1c26c21c69,NA,55b508f4fdf99b1c26c21c69_wolf,wolf,37,484714,1875,34,chase,wolf,1,3,Hit,wolf
2,detect-wolf,04/25/2023,wolf,55b508f4fdf99b1c26c21c69,NA,55b508f4fdf99b1c26c21c69_wolf,wolf,38,490977,872,49,chase,wolf,1,5,Hit,wolf
2,detect-wolf,04/25/2023,wolf,55b508f4fdf99b1c26c21c69,NA,55b508f4fdf99b1c26c21c69_wolf,wolf,39,498523,1945,8,chase,dist,0,3,Ms,dist2
2,detect-wolf,04/25/2023,wolf,55b508f4fdf99b1c26c21c69,NA,55b508f4fdf99b1c26c21c69_wolf,wolf,40,505145,911,37,chase,wolf,1,4,Hit,wolf
2,detect-wolf,04/25/2023,wolf,55b508f4fdf99b1c26c21c69,NA,55b508f4fdf99b1c26c21c69_wolf,wolf,41,511790,931,38,chase,wolf,1,5,Hit,wolf
2,detect-wolf,04/25/2023,wolf,55b508f4fdf99b1c26c21c69,NA,55b508f4fdf99b1c26c21c69_wolf,wolf,42,519726,2575,39,mirror,dist,0,1,CR,dist6
2,detect-wolf,04/25/2023,wolf,55b508f4fdf99b1c26c21c69,NA,55b508f4fdf99b1c26c21c69_wolf,wolf,43,526834,1514,32,chase,wolf,1,3,Hit,wolf
2,detect-wolf,04/25/2023,wolf,55b508f4fdf99b1c26c21c69,NA,55b508f4fdf99b1c26c21c69_wolf,wolf,44,533159,831,31,chase,wolf,1,5,Hit,wolf
2,detect-wolf,04/25/2023,wolf,55b508f4fdf99b1c26c21c69,NA,55b508f4fdf99b1c26c21c69_wolf,wolf,45,540379,1756,41,chase,wolf,1,3,Hit,wolf
2,detect-wolf,04/25/2023,wolf,55b508f4fdf99b1c26c21c69,NA,55b508f4fdf99b1c26c21c69_wolf,wolf,46,547722,2062,33,chase,wolf,1,1,Hit,wolf
2,detect-wolf,04/25/2023,wolf,55b508f4fdf99b1c26c21c69,NA,55b508f4fdf99b1c26c21c69_wolf,wolf,47,555094,2003,27,chase,wolf,1,2,Hit,wolf
2,detect-wolf,04/25/2023,wolf,55b508f4fdf99b1c26c21c69,NA,55b508f4fdf99b1c26c21c69_wolf,wolf,48,561563,982,30,chase,wolf,1,4,Hit,wolf
2,detect-wolf,04/25/2023,wolf,55b508f4fdf99b1c26c21c69,NA,55b508f4fdf99b1c26c21c69_wolf,wolf,49,568806,1668,40,chase,wolf,1,3,Hit,wolf
2,detect-wolf,04/25/2023,wolf,55b508f4fdf99b1c26c21c69,NA,55b508f4fdf99b1c26c21c69_wolf,wolf,50,575449,1206,281,chase,wolf,1,4,Hit,wolf
2,detect-wolf,04/25/2023,wolf,55b508f4fdf99b1c26c21c69,NA,55b508f4fdf99b1c26c21c69_wolf,wolf,51,582629,1782,59,chase,wolf,1,2,Hit,wolf
2,detect-wolf,04/25/2023,wolf,55b508f4fdf99b1c26c21c69,NA,55b508f4fdf99b1c26c21c69_wolf,wolf,52,590010,1974,50,mirror,dist,0,1,CR,dist1
2,detect-wolf,04/25/2023,wolf,55b508f4fdf99b1c26c21c69,NA,55b508f4fdf99b1c26c21c69_wolf,wolf,53,597576,2208,287,mirror,dist,0,1,CR,dist5
2,detect-wolf,04/25/2023,wolf,55b508f4fdf99b1c26c21c69,NA,55b508f4fdf99b1c26c21c69_wolf,wolf,54,605152,2185,286,mirror,dist,0,1,CR,dist2
2,detect-wolf,04/25/2023,wolf,55b508f4fdf99b1c26c21c69,NA,55b508f4fdf99b1c26c21c69_wolf,wolf,55,612848,2308,58,mirror,sheep,0,1,CR,sheep
2,detect-wolf,04/25/2023,wolf,55b508f4fdf99b1c26c21c69,NA,55b508f4fdf99b1c26c21c69_wolf,wolf,56,619846,1689,51,mirror,wolf,1,2,FA,wolf
2,detect-wolf,04/25/2023,wolf,55b508f4fdf99b1c26c21c69,NA,55b508f4fdf99b1c26c21c69_wolf,wolf,57,626254,1096,285,mirror,dist,0,2,CR,dist1
2,detect-wolf,04/25/2023,wolf,55b508f4fdf99b1c26c21c69,NA,55b508f4fdf99b1c26c21c69_wolf,wolf,58,633036,1520,28,mirror,dist,0,2,CR,dist3
2,detect-wolf,04/25/2023,wolf,55b508f4fdf99b1c26c21c69,NA,55b508f4fdf99b1c26c21c69_wolf,wolf,59,640440,2114,61,mirror,dist,0,1,CR,dist2
2,detect-wolf,04/25/2023,wolf,55b508f4fdf99b1c26c21c69,NA,55b508f4fdf99b1c26c21c69_wolf,wolf,60,647940,2200,55,mirror,dist,0,1,CR,dist2
2,detect-wolf,04/25/2023,wolf,55b508f4fdf99b1c26c21c69,NA,55b508f4fdf99b1c26c21c69_wolf,wolf,61,657100,3844,284,mirror,dist,0,1,CR,dist2
2,detect-wolf,04/25/2023,wolf,55b508f4fdf99b1c26c21c69,NA,55b508f4fdf99b1c26c21c69_wolf,wolf,62,664636,2166,56,mirror,dist,0,1,CR,dist5
2,detect-wolf,04/25/2023,wolf,55b508f4fdf99b1c26c21c69,NA,55b508f4fdf99b1c26c21c69_wolf,wolf,63,672210,1645,289,mirror,sheep,0,1,CR,sheep
2,detect-wolf,04/25/2023,wolf,55b508f4fdf99b1c26c21c69,NA,55b508f4fdf99b1c26c21c69_wolf,wolf,64,679779,2124,282,mirror,dist,0,1,CR,dist1
2,detect-wolf,04/25/2023,wolf,55b508f4fdf99b1c26c21c69,NA,55b508f4fdf99b1c26c21c69_wolf,wolf,65,687180,1983,63,mirror,dist,0,1,CR,dist3
2,detect-wolf,04/25/2023,wolf,55b508f4fdf99b1c26c21c69,NA,55b508f4fdf99b1c26c21c69_wolf,wolf,66,695030,2363,283,mirror,sheep,0,1,CR,sheep
2,detect-wolf,04/25/2023,wolf,55b508f4fdf99b1c26c21c69,NA,55b508f4fdf99b1c26c21c69_wolf,wolf,67,701558,1278,288,mirror,dist,0,2,CR,dist3
2,detect-wolf,04/25/2023,wolf,55b508f4fdf99b1c26c21c69,NA,55b508f4fdf99b1c26c21c69_wolf,wolf,68,709065,1892,292,mirror,dist,0,1,CR,dist1
2,detect-wolf,04/25/2023,wolf,55b508f4fdf99b1c26c21c69,NA,55b508f4fdf99b1c26c21c69_wolf,wolf,69,715478,1105,54,mirror,dist,0,1,CR,dist1
2,detect-wolf,04/25/2023,wolf,55b508f4fdf99b1c26c21c69,NA,55b508f4fdf99b1c26c21c69_wolf,wolf,70,723393,2297,9,mirror,dist,0,1,CR,dist4
2,detect-wolf,04/25/2023,wolf,55b508f4fdf99b1c26c21c69,NA,55b508f4fdf99b1c26c21c69_wolf,wolf,71,730912,2014,295,mirror,wolf,1,1,FA,wolf
2,detect-wolf,04/25/2023,wolf,55b508f4fdf99b1c26c21c69,NA,55b508f4fdf99b1c26c21c69_wolf,wolf,72,737944,1661,53,mirror,sheep,0,1,CR,sheep
2,detect-wolf,04/25/2023,wolf,55b508f4fdf99b1c26c21c69,NA,55b508f4fdf99b1c26c21c69_wolf,wolf,73,745663,2219,294,mirror,dist,0,1,CR,dist5
2,detect-wolf,04/25/2023,wolf,55b508f4fdf99b1c26c21c69,NA,55b508f4fdf99b1c26c21c69_wolf,wolf,74,752238,1025,29,mirror,dist,0,1,CR,dist2
2,detect-wolf,04/25/2023,wolf,55b508f4fdf99b1c26c21c69,NA,55b508f4fdf99b1c26c21c69_wolf,wolf,75,759219,1613,52,mirror,dist,0,1,CR,dist6
2,detect-wolf,04/25/2023,wolf,55b508f4fdf99b1c26c21c69,NA,55b508f4fdf99b1c26c21c69_wolf,wolf,76,765320,806,6,mirror,dist,0,1,CR,dist3
2,detect-wolf,04/25/2023,wolf,55b508f4fdf99b1c26c21c69,NA,55b508f4fdf99b1c26c21c69_wolf,wolf,77,774301,3739,57,mirror,dist,0,1,CR,dist3
2,detect-wolf,04/25/2023,wolf,55b508f4fdf99b1c26c21c69,NA,55b508f4fdf99b1c26c21c69_wolf,wolf,78,781500,1761,13,mirror,dist,0,1,CR,dist4
2,detect-wolf,04/25/2023,wolf,55b508f4fdf99b1c26c21c69,NA,55b508f4fdf99b1c26c21c69_wolf,wolf,79,788718,1913,64,mirror,sheep,0,1,CR,sheep
2,detect-wolf,04/25/2023,wolf,55b508f4fdf99b1c26c21c69,NA,55b508f4fdf99b1c26c21c69_wolf,wolf,80,795054,1081,11,mirror,dist,0,1,CR,dist6
2,detect-wolf,04/25/2023,wolf,55b508f4fdf99b1c26c21c69,NA,55b508f4fdf99b1c26c21c69_wolf,wolf,81,801586,1135,62,mirror,dist,0,1,CR,dist5
2,detect-wolf,04/25/2023,wolf,55b508f4fdf99b1c26c21c69,NA,55b508f4fdf99b1c26c21c69_wolf,wolf,82,809090,2009,296,mirror,dist,0,1,CR,dist4
2,detect-wolf,04/25/2023,wolf,55b508f4fdf99b1c26c21c69,NA,55b508f4fdf99b1c26c21c69_wolf,wolf,83,819274,3874,298,mirror,sheep,0,1,CR,sheep
2,detect-wolf,04/25/2023,wolf,55b508f4fdf99b1c26c21c69,NA,55b508f4fdf99b1c26c21c69_wolf,wolf,84,825862,1198,291,mirror,wolf,1,1,FA,wolf
2,detect-wolf,04/25/2023,wolf,55b508f4fdf99b1c26c21c69,NA,55b508f4fdf99b1c26c21c69_wolf,wolf,85,835314,4005,297,mirror,wolf,1,1,FA,wolf
2,detect-wolf,04/25/2023,wolf,55b508f4fdf99b1c26c21c69,NA,55b508f4fdf99b1c26c21c69_wolf,wolf,86,842945,1404,300,mirror,dist,0,1,CR,dist1
2,detect-wolf,04/25/2023,wolf,55b508f4fdf99b1c26c21c69,NA,55b508f4fdf99b1c26c21c69_wolf,wolf,87,849588,1346,290,mirror,dist,0,1,CR,dist1
2,detect-wolf,04/25/2023,wolf,55b508f4fdf99b1c26c21c69,NA,55b508f4fdf99b1c26c21c69_wolf,wolf,88,856256,1268,65,mirror,dist,0,1,CR,dist2
2,detect-wolf,04/25/2023,wolf,55b508f4fdf99b1c26c21c69,NA,55b508f4fdf99b1c26c21c69_wolf,wolf,89,863674,2073,299,mirror,wolf,1,1,FA,wolf
2,detect-wolf,04/25/2023,wolf,55b508f4fdf99b1c26c21c69,NA,55b508f4fdf99b1c26c21c69_wolf,wolf,90,870970,1838,60,mirror,sheep,0,1,CR,sheep
2,detect-wolf,04/25/2023,wolf,55b508f4fdf99b1c26c21c69,NA,55b508f4fdf99b1c26c21c69_wolf,wolf,91,877471,1242,10,mirror,dist,0,1,CR,dist6
2,detect-wolf,04/25/2023,wolf,55b508f4fdf99b1c26c21c69,NA,55b508f4fdf99b1c26c21c69_wolf,wolf,92,885326,2388,293,mirror,dist,0,2,CR,dist1
2,detect-wolf,04/25/2023,wolf,55b508f4fdf99b1c26c21c69,NA,55b508f4fdf99b1c26c21c69_wolf,wolf,93,891930,1372,12,mirror,sheep,0,2,CR,sheep
2,detect-wolf,04/25/2023,wolf,55b508f4fdf99b1c26c21c69,NA,55b508f4fdf99b1c26c21c69_wolf,wolf,94,898367,932,14,mirror,dist,0,2,CR,dist6
2,detect-wolf,04/25/2023,wolf,55b508f4fdf99b1c26c21c69,NA,55b508f4fdf99b1c26c21c69_wolf,wolf,95,904800,1055,15,mirror,dist,0,1,CR,dist4
2,detect-wolf,04/25/2023,wolf,55b508f4fdf99b1c26c21c69,NA,55b508f4fdf99b1c26c21c69_wolf,wolf,96,911517,1432,17,mirror,dist,0,1,CR,dist6
2,detect-wolf,04/25/2023,wolf,55b508f4fdf99b1c26c21c69,NA,55b508f4fdf99b1c26c21c69_wolf,wolf,97,919153,2237,16,mirror,dist,0,1,CR,dist3
2,detect-wolf,04/25/2023,wolf,55b508f4fdf99b1c26c21c69,NA,55b508f4fdf99b1c26c21c69_wolf,wolf,98,926191,1646,98,mirror,dist,0,1,CR,dist5
2,detect-wolf,04/25/2023,wolf,55b508f4fdf99b1c26c21c69,NA,55b508f4fdf99b1c26c21c69_wolf,wolf,99,932898,1332,66,mirror,dist,0,1,CR,dist5
2,detect-wolf,04/25/2023,wolf,55b508f4fdf99b1c26c21c69,NA,55b508f4fdf99b1c26c21c69_wolf,wolf,100,940348,2096,67,mirror,dist,0,1,CR,dist4
2,detect-wolf,04/25/2023,wolf,55b6a2e5fdf99b350d57360e,NA,55b6a2e5fdf99b350d57360e_wolf,wolf,1,243441,1222,277,chase,wolf,1,5,Hit,wolf
2,detect-wolf,04/25/2023,wolf,55b6a2e5fdf99b350d57360e,NA,55b6a2e5fdf99b350d57360e_wolf,wolf,2,250761,1322,262,chase,wolf,1,5,Hit,wolf
2,detect-wolf,04/25/2023,wolf,55b6a2e5fdf99b350d57360e,NA,55b6a2e5fdf99b350d57360e_wolf,wolf,3,257977,1641,5,chase,dist,0,4,Ms,dist5
2,detect-wolf,04/25/2023,wolf,55b6a2e5fdf99b350d57360e,NA,55b6a2e5fdf99b350d57360e_wolf,wolf,4,266703,1994,98,chase,dist,0,3,Ms,dist5
2,detect-wolf,04/25/2023,wolf,55b6a2e5fdf99b350d57360e,NA,55b6a2e5fdf99b350d57360e_wolf,wolf,5,274057,2084,271,chase,wolf,1,2,Hit,wolf
2,detect-wolf,04/25/2023,wolf,55b6a2e5fdf99b350d57360e,NA,55b6a2e5fdf99b350d57360e_wolf,wolf,6,280905,1662,93,chase,wolf,1,2,Hit,wolf
2,detect-wolf,04/25/2023,wolf,55b6a2e5fdf99b350d57360e,NA,55b6a2e5fdf99b350d57360e_wolf,wolf,7,289160,3091,12,chase,dist,0,1,Ms,dist6
2,detect-wolf,04/25/2023,wolf,55b6a2e5fdf99b350d57360e,NA,55b6a2e5fdf99b350d57360e_wolf,wolf,8,295545,1204,280,chase,wolf,1,5,Hit,wolf
2,detect-wolf,04/25/2023,wolf,55b6a2e5fdf99b350d57360e,NA,55b6a2e5fdf99b350d57360e_wolf,wolf,9,303081,1345,267,chase,wolf,1,3,Hit,wolf
2,detect-wolf,04/25/2023,wolf,55b6a2e5fdf99b350d57360e,NA,55b6a2e5fdf99b350d57360e_wolf,wolf,10,309593,1256,281,chase,dist,0,5,Ms,dist5
2,detect-wolf,04/25/2023,wolf,55b6a2e5fdf99b350d57360e,NA,55b6a2e5fdf99b350d57360e_wolf,wolf,11,316321,1343,266,chase,wolf,1,5,Hit,wolf
2,detect-wolf,04/25/2023,wolf,55b6a2e5fdf99b350d57360e,NA,55b6a2e5fdf99b350d57360e_wolf,wolf,12,322704,1137,4,chase,wolf,1,5,Hit,wolf
2,detect-wolf,04/25/2023,wolf,55b6a2e5fdf99b350d57360e,NA,55b6a2e5fdf99b350d57360e_wolf,wolf,13,329653,1558,282,chase,wolf,1,4,Hit,wolf
2,detect-wolf,04/25/2023,wolf,55b6a2e5fdf99b350d57360e,NA,55b6a2e5fdf99b350d57360e_wolf,wolf,14,335681,816,270,chase,wolf,1,5,Hit,wolf
2,detect-wolf,04/25/2023,wolf,55b6a2e5fdf99b350d57360e,NA,55b6a2e5fdf99b350d57360e_wolf,wolf,15,342222,1312,11,chase,sheep,0,4,Ms,sheep
2,detect-wolf,04/25/2023,wolf,55b6a2e5fdf99b350d57360e,NA,55b6a2e5fdf99b350d57360e_wolf,wolf,16,348552,1036,258,chase,wolf,1,5,Hit,wolf
2,detect-wolf,04/25/2023,wolf,55b6a2e5fdf99b350d57360e,NA,55b6a2e5fdf99b350d57360e_wolf,wolf,17,354677,950,111,chase,wolf,1,5,Hit,wolf
2,detect-wolf,04/25/2023,wolf,55b6a2e5fdf99b350d57360e,NA,55b6a2e5fdf99b350d57360e_wolf,wolf,18,361609,1690,9,chase,wolf,1,5,Hit,wolf
2,detect-wolf,04/25/2023,wolf,55b6a2e5fdf99b350d57360e,NA,55b6a2e5fdf99b350d57360e_wolf,wolf,19,367952,1104,272,chase,wolf,1,5,Hit,wolf
2,detect-wolf,04/25/2023,wolf,55b6a2e5fdf99b350d57360e,NA,55b6a2e5fdf99b350d57360e_wolf,wolf,20,376465,2584,284,chase,wolf,1,3,Hit,wolf
2,detect-wolf,04/25/2023,wolf,55b6a2e5fdf99b350d57360e,NA,55b6a2e5fdf99b350d57360e_wolf,wolf,21,383153,1466,10,chase,wolf,1,4,Hit,wolf
2,detect-wolf,04/25/2023,wolf,55b6a2e5fdf99b350d57360e,NA,55b6a2e5fdf99b350d57360e_wolf,wolf,22,389974,1251,287,chase,wolf,1,5,Hit,wolf
2,detect-wolf,04/25/2023,wolf,55b6a2e5fdf99b350d57360e,NA,55b6a2e5fdf99b350d57360e_wolf,wolf,23,397873,1844,100,chase,wolf,1,3,Hit,wolf
2,detect-wolf,04/25/2023,wolf,55b6a2e5fdf99b350d57360e,NA,55b6a2e5fdf99b350d57360e_wolf,wolf,24,404887,1525,106,chase,dist,0,4,Ms,dist4
2,detect-wolf,04/25/2023,wolf,55b6a2e5fdf99b350d57360e,NA,55b6a2e5fdf99b350d57360e_wolf,wolf,25,415425,1373,264,chase,dist,0,4,Ms,dist5
2,detect-wolf,04/25/2023,wolf,55b6a2e5fdf99b350d57360e,NA,55b6a2e5fdf99b350d57360e_wolf,wolf,26,426081,3359,265,chase,dist,0,2,Ms,dist5
2,detect-wolf,04/25/2023,wolf,55b6a2e5fdf99b350d57360e,NA,55b6a2e5fdf99b350d57360e_wolf,wolf,27,433777,1612,273,chase,wolf,1,4,Hit,wolf
2,detect-wolf,04/25/2023,wolf,55b6a2e5fdf99b350d57360e,NA,55b6a2e5fdf99b350d57360e_wolf,wolf,28,443024,3421,87,chase,dist,0,2,Ms,dist3
2,detect-wolf,04/25/2023,wolf,55b6a2e5fdf99b350d57360e,NA,55b6a2e5fdf99b350d57360e_wolf,wolf,29,449909,1165,110,chase,dist,0,4,Ms,dist3
2,detect-wolf,04/25/2023,wolf,55b6a2e5fdf99b350d57360e,NA,55b6a2e5fdf99b350d57360e_wolf,wolf,30,457244,2043,68,chase,dist,0,2,Ms,dist3
2,detect-wolf,04/25/2023,wolf,55b6a2e5fdf99b350d57360e,NA,55b6a2e5fdf99b350d57360e_wolf,wolf,31,463877,1344,261,chase,dist,0,3,Ms,dist3
2,detect-wolf,04/25/2023,wolf,55b6a2e5fdf99b350d57360e,NA,55b6a2e5fdf99b350d57360e_wolf,wolf,32,470665,1482,269,chase,wolf,1,5,Hit,wolf
2,detect-wolf,04/25/2023,wolf,55b6a2e5fdf99b350d57360e,NA,55b6a2e5fdf99b350d57360e_wolf,wolf,33,477129,1120,6,chase,wolf,1,5,Hit,wolf
2,detect-wolf,04/25/2023,wolf,55b6a2e5fdf99b350d57360e,NA,55b6a2e5fdf99b350d57360e_wolf,wolf,34,484097,1683,7,chase,wolf,1,5,Hit,wolf
2,detect-wolf,04/25/2023,wolf,55b6a2e5fdf99b350d57360e,NA,55b6a2e5fdf99b350d57360e_wolf,wolf,35,496657,4501,283,chase,wolf,1,2,Hit,wolf
2,detect-wolf,04/25/2023,wolf,55b6a2e5fdf99b350d57360e,NA,55b6a2e5fdf99b350d57360e_wolf,wolf,36,504457,2005,268,chase,dist,0,3,Ms,dist6
2,detect-wolf,04/25/2023,wolf,55b6a2e5fdf99b350d57360e,NA,55b6a2e5fdf99b350d57360e_wolf,wolf,37,511225,1313,8,chase,wolf,1,5,Hit,wolf
2,detect-wolf,04/25/2023,wolf,55b6a2e5fdf99b350d57360e,NA,55b6a2e5fdf99b350d57360e_wolf,wolf,38,519506,2184,14,chase,dist,0,3,Ms,dist2
2,detect-wolf,04/25/2023,wolf,55b6a2e5fdf99b350d57360e,NA,55b6a2e5fdf99b350d57360e_wolf,wolf,39,527081,2227,17,chase,dist,0,2,Ms,dist2
2,detect-wolf,04/25/2023,wolf,55b6a2e5fdf99b350d57360e,NA,55b6a2e5fdf99b350d57360e_wolf,wolf,40,536552,4150,107,chase,dist,0,1,Ms,dist4
2,detect-wolf,04/25/2023,wolf,55b6a2e5fdf99b350d57360e,NA,55b6a2e5fdf99b350d57360e_wolf,wolf,41,543567,1193,259,chase,wolf,1,4,Hit,wolf
2,detect-wolf,04/25/2023,wolf,55b6a2e5fdf99b350d57360e,NA,55b6a2e5fdf99b350d57360e_wolf,wolf,42,551596,2522,66,chase,dist,0,3,Ms,dist6
2,detect-wolf,04/25/2023,wolf,55b6a2e5fdf99b350d57360e,NA,55b6a2e5fdf99b350d57360e_wolf,wolf,43,558317,1432,285,chase,wolf,1,5,Hit,wolf
2,detect-wolf,04/25/2023,wolf,55b6a2e5fdf99b350d57360e,NA,55b6a2e5fdf99b350d57360e_wolf,wolf,44,565137,1673,260,chase,wolf,1,4,Hit,wolf
2,detect-wolf,04/25/2023,wolf,55b6a2e5fdf99b350d57360e,NA,55b6a2e5fdf99b350d57360e_wolf,wolf,45,573513,3134,13,chase,wolf,1,1,Hit,wolf
2,detect-wolf,04/25/2023,wolf,55b6a2e5fdf99b350d57360e,NA,55b6a2e5fdf99b350d57360e_wolf,wolf,46,582825,4058,99,chase,dist,0,1,Ms,dist2
2,detect-wolf,04/25/2023,wolf,55b6a2e5fdf99b350d57360e,NA,55b6a2e5fdf99b350d57360e_wolf,wolf,47,589589,1628,109,chase,wolf,1,4,Hit,wolf
2,detect-wolf,04/25/2023,wolf,55b6a2e5fdf99b350d57360e,NA,55b6a2e5fdf99b350d57360e_wolf,wolf,48,596177,1319,91,chase,wolf,1,5,Hit,wolf
2,detect-wolf,04/25/2023,wolf,55b6a2e5fdf99b350d57360e,NA,55b6a2e5fdf99b350d57360e_wolf,wolf,49,603745,1910,286,mirror,dist,0,4,CR,dist4
2,detect-wolf,04/25/2023,wolf,55b6a2e5fdf99b350d57360e,NA,55b6a2e5fdf99b350d57360e_wolf,wolf,50,610487,1124,288,mirror,dist,0,5,CR,dist3
2,detect-wolf,04/25/2023,wolf,55b6a2e5fdf99b350d57360e,NA,55b6a2e5fdf99b350d57360e_wolf,wolf,51,618402,2675,289,mirror,sheep,0,2,CR,sheep
2,detect-wolf,04/25/2023,wolf,55b6a2e5fdf99b350d57360e,NA,55b6a2e5fdf99b350d57360e_wolf,wolf,52,625280,1546,290,chase,wolf,1,4,Hit,wolf
2,detect-wolf,04/25/2023,wolf,55b6a2e5fdf99b350d57360e,NA,55b6a2e5fdf99b350d57360e_wolf,wolf,53,632202,1669,16,mirror,dist,0,2,CR,dist5
2,detect-wolf,04/25/2023,wolf,55b6a2e5fdf99b350d57360e,NA,55b6a2e5fdf99b350d57360e_wolf,wolf,54,639151,1555,292,chase,wolf,1,5,Hit,wolf
2,detect-wolf,04/25/2023,wolf,55b6a2e5fdf99b350d57360e,NA,55b6a2e5fdf99b350d57360e_wolf,wolf,55,648353,3942,293,mirror,dist,0,1,CR,dist3
2,detect-wolf,04/25/2023,wolf,55b6a2e5fdf99b350d57360e,NA,55b6a2e5fdf99b350d57360e_wolf,wolf,56,655440,1612,291,mirror,dist,0,3,CR,dist5
2,detect-wolf,04/25/2023,wolf,55b6a2e5fdf99b350d57360e,NA,55b6a2e5fdf99b350d57360e_wolf,wolf,57,664338,3529,101,mirror,dist,0,1,CR,dist6
2,detect-wolf,04/25/2023,wolf,55b6a2e5fdf99b350d57360e,NA,55b6a2e5fdf99b350d57360e_wolf,wolf,58,673354,3592,18,mirror,wolf,1,1,FA,wolf
2,detect-wolf,04/25/2023,wolf,55b6a2e5fdf99b350d57360e,NA,55b6a2e5fdf99b350d57360e_wolf,wolf,59,680514,1845,103,mirror,dist,0,5,CR,dist2
2,detect-wolf,04/25/2023,wolf,55b6a2e5fdf99b350d57360e,NA,55b6a2e5fdf99b350d57360e_wolf,wolf,60,690216,4418,294,mirror,dist,0,1,CR,dist4
2,detect-wolf,04/25/2023,wolf,55b6a2e5fdf99b350d57360e,NA,55b6a2e5fdf99b350d57360e_wolf,wolf,61,701450,5877,112,mirror,dist,0,1,CR,dist4
2,detect-wolf,04/25/2023,wolf,55b6a2e5fdf99b350d57360e,NA,55b6a2e5fdf99b350d57360e_wolf,wolf,62,708806,2054,296,mirror,dist,0,3,CR,dist5
2,detect-wolf,04/25/2023,wolf,55b6a2e5fdf99b350d57360e,NA,55b6a2e5fdf99b350d57360e_wolf,wolf,63,717257,3183,295,mirror,sheep,0,1,CR,sheep
2,detect-wolf,04/25/2023,wolf,55b6a2e5fdf99b350d57360e,NA,55b6a2e5fdf99b350d57360e_wolf,wolf,64,724417,1459,19,mirror,wolf,1,2,FA,wolf
2,detect-wolf,04/25/2023,wolf,55b6a2e5fdf99b350d57360e,NA,55b6a2e5fdf99b350d57360e_wolf,wolf,65,734025,4308,297,mirror,dist,0,1,CR,dist3
2,detect-wolf,04/25/2023,wolf,55b6a2e5fdf99b350d57360e,NA,55b6a2e5fdf99b350d57360e_wolf,wolf,66,740615,1101,27,mirror,dist,0,3,CR,dist1
2,detect-wolf,04/25/2023,wolf,55b6a2e5fdf99b350d57360e,NA,55b6a2e5fdf99b350d57360e_wolf,wolf,67,748482,2290,90,mirror,dist,0,2,CR,dist1
2,detect-wolf,04/25/2023,wolf,55b6a2e5fdf99b350d57360e,NA,55b6a2e5fdf99b350d57360e_wolf,wolf,68,755978,1543,299,mirror,dist,0,3,CR,dist1
2,detect-wolf,04/25/2023,wolf,55b6a2e5fdf99b350d57360e,NA,55b6a2e5fdf99b350d57360e_wolf,wolf,69,763858,2213,298,mirror,dist,0,3,CR,dist5
2,detect-wolf,04/25/2023,wolf,55b6a2e5fdf99b350d57360e,NA,55b6a2e5fdf99b350d57360e_wolf,wolf,70,771657,1876,21,mirror,dist,0,2,CR,dist1
2,detect-wolf,04/25/2023,wolf,55b6a2e5fdf99b350d57360e,NA,55b6a2e5fdf99b350d57360e_wolf,wolf,71,779722,2588,26,mirror,dist,0,2,CR,dist5
2,detect-wolf,04/25/2023,wolf,55b6a2e5fdf99b350d57360e,NA,55b6a2e5fdf99b350d57360e_wolf,wolf,72,789705,4590,104,mirror,dist,0,1,CR,dist3
2,detect-wolf,04/25/2023,wolf,55b6a2e5fdf99b350d57360e,NA,55b6a2e5fdf99b350d57360e_wolf,wolf,73,796776,1876,300,mirror,dist,0,4,CR,dist1
2,detect-wolf,04/25/2023,wolf,55b6a2e5fdf99b350d57360e,NA,55b6a2e5fdf99b350d57360e_wolf,wolf,74,804193,2181,108,mirror,dist,0,2,CR,dist3
2,detect-wolf,04/25/2023,wolf,55b6a2e5fdf99b350d57360e,NA,55b6a2e5fdf99b350d57360e_wolf,wolf,75,811911,2503,69,mirror,wolf,1,1,FA,wolf
2,detect-wolf,04/25/2023,wolf,55b6a2e5fdf99b350d57360e,NA,55b6a2e5fdf99b350d57360e_wolf,wolf,76,818689,1539,20,mirror,wolf,1,3,FA,wolf
2,detect-wolf,04/25/2023,wolf,55b6a2e5fdf99b350d57360e,NA,55b6a2e5fdf99b350d57360e_wolf,wolf,77,825941,1842,24,mirror,wolf,1,3,FA,wolf
2,detect-wolf,04/25/2023,wolf,55b6a2e5fdf99b350d57360e,NA,55b6a2e5fdf99b350d57360e_wolf,wolf,78,834193,2296,29,mirror,dist,0,3,CR,dist4
2,detect-wolf,04/25/2023,wolf,55b6a2e5fdf99b350d57360e,NA,55b6a2e5fdf99b350d57360e_wolf,wolf,79,842112,1929,28,mirror,sheep,0,3,CR,sheep
2,detect-wolf,04/25/2023,wolf,55b6a2e5fdf99b350d57360e,NA,55b6a2e5fdf99b350d57360e_wolf,wolf,80,849113,1740,23,mirror,dist,0,4,CR,dist4
2,detect-wolf,04/25/2023,wolf,55b6a2e5fdf99b350d57360e,NA,55b6a2e5fdf99b350d57360e_wolf,wolf,81,858010,3647,92,mirror,dist,0,1,CR,dist4
2,detect-wolf,04/25/2023,wolf,55b6a2e5fdf99b350d57360e,NA,55b6a2e5fdf99b350d57360e_wolf,wolf,82,865266,1905,32,mirror,dist,0,2,CR,dist5
2,detect-wolf,04/25/2023,wolf,55b6a2e5fdf99b350d57360e,NA,55b6a2e5fdf99b350d57360e_wolf,wolf,83,873145,1894,22,mirror,dist,0,2,CR,dist1
2,detect-wolf,04/25/2023,wolf,55b6a2e5fdf99b350d57360e,NA,55b6a2e5fdf99b350d57360e_wolf,wolf,84,883106,4600,67,mirror,dist,0,1,CR,dist3
2,detect-wolf,04/25/2023,wolf,55b6a2e5fdf99b350d57360e,NA,55b6a2e5fdf99b350d57360e_wolf,wolf,85,889706,1368,31,mirror,dist,0,5,CR,dist1
2,detect-wolf,04/25/2023,wolf,55b6a2e5fdf99b350d57360e,NA,55b6a2e5fdf99b350d57360e_wolf,wolf,86,896729,1596,86,mirror,dist,0,5,CR,dist6
2,detect-wolf,04/25/2023,wolf,55b6a2e5fdf99b350d57360e,NA,55b6a2e5fdf99b350d57360e_wolf,wolf,87,903828,1855,30,mirror,dist,0,4,CR,dist3
2,detect-wolf,04/25/2023,wolf,55b6a2e5fdf99b350d57360e,NA,55b6a2e5fdf99b350d57360e_wolf,wolf,88,910840,1740,33,mirror,dist,0,5,CR,dist1
2,detect-wolf,04/25/2023,wolf,55b6a2e5fdf99b350d57360e,NA,55b6a2e5fdf99b350d57360e_wolf,wolf,89,918278,2174,25,mirror,dist,0,3,CR,dist2
2,detect-wolf,04/25/2023,wolf,55b6a2e5fdf99b350d57360e,NA,55b6a2e5fdf99b350d57360e_wolf,wolf,90,927956,4147,94,mirror,dist,0,1,CR,dist3
2,detect-wolf,04/25/2023,wolf,55b6a2e5fdf99b350d57360e,NA,55b6a2e5fdf99b350d57360e_wolf,wolf,91,937503,3784,102,mirror,dist,0,1,CR,dist3
2,detect-wolf,04/25/2023,wolf,55b6a2e5fdf99b350d57360e,NA,55b6a2e5fdf99b350d57360e_wolf,wolf,92,944306,1509,113,mirror,dist,0,5,CR,dist3
2,detect-wolf,04/25/2023,wolf,55b6a2e5fdf99b350d57360e,NA,55b6a2e5fdf99b350d57360e_wolf,wolf,93,950873,1357,105,mirror,dist,0,5,CR,dist2
2,detect-wolf,04/25/2023,wolf,55b6a2e5fdf99b350d57360e,NA,55b6a2e5fdf99b350d57360e_wolf,wolf,94,958231,2045,50,mirror,sheep,0,4,CR,sheep
2,detect-wolf,04/25/2023,wolf,55b6a2e5fdf99b350d57360e,NA,55b6a2e5fdf99b350d57360e_wolf,wolf,95,966101,2601,127,mirror,sheep,0,1,CR,sheep
2,detect-wolf,04/25/2023,wolf,55b6a2e5fdf99b350d57360e,NA,55b6a2e5fdf99b350d57360e_wolf,wolf,96,972482,934,123,mirror,dist,0,4,CR,dist5
2,detect-wolf,04/25/2023,wolf,55b6a2e5fdf99b350d57360e,NA,55b6a2e5fdf99b350d57360e_wolf,wolf,97,979904,1993,116,mirror,dist,0,3,CR,dist6
2,detect-wolf,04/25/2023,wolf,55b6a2e5fdf99b350d57360e,NA,55b6a2e5fdf99b350d57360e_wolf,wolf,98,987802,2191,53,mirror,dist,0,2,CR,dist6
2,detect-wolf,04/25/2023,wolf,55b6a2e5fdf99b350d57360e,NA,55b6a2e5fdf99b350d57360e_wolf,wolf,99,994693,1263,38,mirror,dist,0,3,CR,dist5
2,detect-wolf,04/25/2023,wolf,55b6a2e5fdf99b350d57360e,NA,55b6a2e5fdf99b350d57360e_wolf,wolf,100,1002962,2995,41,mirror,sheep,0,1,CR,sheep
2,detect-wolf,04/25/2023,wolf,56d0f57421cd29000a9737e4,NA,56d0f57421cd29000a9737e4_wolf,wolf,1,1970416,883,262,chase,wolf,1,5,Hit,wolf
2,detect-wolf,04/25/2023,wolf,56d0f57421cd29000a9737e4,NA,56d0f57421cd29000a9737e4_wolf,wolf,2,1977440,2278,211,chase,dist,0,1,Ms,dist3
2,detect-wolf,04/25/2023,wolf,56d0f57421cd29000a9737e4,NA,56d0f57421cd29000a9737e4_wolf,wolf,3,1984295,1098,34,mirror,sheep,0,3,CR,sheep
2,detect-wolf,04/25/2023,wolf,56d0f57421cd29000a9737e4,NA,56d0f57421cd29000a9737e4_wolf,wolf,4,1991797,2381,297,mirror,dist,0,1,CR,dist5
2,detect-wolf,04/25/2023,wolf,56d0f57421cd29000a9737e4,NA,56d0f57421cd29000a9737e4_wolf,wolf,5,1997939,801,195,chase,wolf,1,5,Hit,wolf
2,detect-wolf,04/25/2023,wolf,56d0f57421cd29000a9737e4,NA,56d0f57421cd29000a9737e4_wolf,wolf,6,2004434,882,166,mirror,dist,0,2,CR,dist5
2,detect-wolf,04/25/2023,wolf,56d0f57421cd29000a9737e4,NA,56d0f57421cd29000a9737e4_wolf,wolf,7,2014064,971,290,mirror,dist,0,1,CR,dist5
2,detect-wolf,04/25/2023,wolf,56d0f57421cd29000a9737e4,NA,56d0f57421cd29000a9737e4_wolf,wolf,8,2020021,787,296,chase,wolf,1,4,Hit,wolf
2,detect-wolf,04/25/2023,wolf,56d0f57421cd29000a9737e4,NA,56d0f57421cd29000a9737e4_wolf,wolf,9,2027297,2043,83,mirror,dist,0,1,CR,dist5
2,detect-wolf,04/25/2023,wolf,56d0f57421cd29000a9737e4,NA,56d0f57421cd29000a9737e4_wolf,wolf,10,2033047,888,76,mirror,wolf,1,1,FA,wolf
2,detect-wolf,04/25/2023,wolf,56d0f57421cd29000a9737e4,NA,56d0f57421cd29000a9737e4_wolf,wolf,11,2040288,2067,35,mirror,dist,0,1,CR,dist3
2,detect-wolf,04/25/2023,wolf,56d0f57421cd29000a9737e4,NA,56d0f57421cd29000a9737e4_wolf,wolf,12,2046415,933,291,chase,wolf,1,5,Hit,wolf
2,detect-wolf,04/25/2023,wolf,56d0f57421cd29000a9737e4,NA,56d0f57421cd29000a9737e4_wolf,wolf,13,2053558,1156,212,chase,wolf,1,3,Hit,wolf
2,detect-wolf,04/25/2023,wolf,56d0f57421cd29000a9737e4,NA,56d0f57421cd29000a9737e4_wolf,wolf,14,2060192,1133,67,mirror,dist,0,3,CR,dist2
2,detect-wolf,04/25/2023,wolf,56d0f57421cd29000a9737e4,NA,56d0f57421cd29000a9737e4_wolf,wolf,15,2067124,1097,264,chase,wolf,1,5,Hit,wolf
2,detect-wolf,04/25/2023,wolf,56d0f57421cd29000a9737e4,NA,56d0f57421cd29000a9737e4_wolf,wolf,16,2073592,1563,15,mirror,dist,0,1,CR,dist4
2,detect-wolf,04/25/2023,wolf,56d0f57421cd29000a9737e4,NA,56d0f57421cd29000a9737e4_wolf,wolf,17,2082141,2034,210,mirror,wolf,1,1,FA,wolf
2,detect-wolf,04/25/2023,wolf,56d0f57421cd29000a9737e4,NA,56d0f57421cd29000a9737e4_wolf,wolf,18,2088142,1201,66,mirror,dist,0,1,CR,dist5
2,detect-wolf,04/25/2023,wolf,56d0f57421cd29000a9737e4,NA,56d0f57421cd29000a9737e4_wolf,wolf,19,2094324,874,68,chase,wolf,1,5,Hit,wolf
2,detect-wolf,04/25/2023,wolf,56d0f57421cd29000a9737e4,NA,56d0f57421cd29000a9737e4_wolf,wolf,20,2101811,2193,265,mirror,dist,0,1,CR,dist2
2,detect-wolf,04/25/2023,wolf,56d0f57421cd29000a9737e4,NA,56d0f57421cd29000a9737e4_wolf,wolf,21,2107822,1181,270,chase,dist,0,1,Ms,dist2
2,detect-wolf,04/25/2023,wolf,56d0f57421cd29000a9737e4,NA,56d0f57421cd29000a9737e4_wolf,wolf,22,2114418,1242,267,chase,wolf,1,5,Hit,wolf
2,detect-wolf,04/25/2023,wolf,56d0f57421cd29000a9737e4,NA,56d0f57421cd29000a9737e4_wolf,wolf,23,2120589,1341,238,mirror,dist,0,1,CR,dist3
2,detect-wolf,04/25/2023,wolf,56d0f57421cd29000a9737e4,NA,56d0f57421cd29000a9737e4_wolf,wolf,24,2126815,1442,292,mirror,dist,0,1,CR,dist1
2,detect-wolf,04/25/2023,wolf,56d0f57421cd29000a9737e4,NA,56d0f57421cd29000a9737e4_wolf,wolf,25,2133865,2240,266,mirror,dist,0,1,CR,dist5
2,detect-wolf,04/25/2023,wolf,56d0f57421cd29000a9737e4,NA,56d0f57421cd29000a9737e4_wolf,wolf,26,2142032,3519,75,mirror,sheep,0,1,CR,sheep
2,detect-wolf,04/25/2023,wolf,56d0f57421cd29000a9737e4,NA,56d0f57421cd29000a9737e4_wolf,wolf,27,2148395,939,271,mirror,dist,0,2,CR,dist4
2,detect-wolf,04/25/2023,wolf,56d0f57421cd29000a9737e4,NA,56d0f57421cd29000a9737e4_wolf,wolf,28,2154207,1050,293,mirror,wolf,1,1,FA,wolf
2,detect-wolf,04/25/2023,wolf,56d0f57421cd29000a9737e4,NA,56d0f57421cd29000a9737e4_wolf,wolf,29,2159922,881,298,chase,dist,0,1,Ms,dist5
2,detect-wolf,04/25/2023,wolf,56d0f57421cd29000a9737e4,NA,56d0f57421cd29000a9737e4_wolf,wolf,30,2166239,867,194,chase,wolf,1,4,Hit,wolf
2,detect-wolf,04/25/2023,wolf,56d0f57421cd29000a9737e4,NA,56d0f57421cd29000a9737e4_wolf,wolf,31,2171883,896,272,mirror,dist,0,1,CR,dist4
2,detect-wolf,04/25/2023,wolf,56d0f57421cd29000a9737e4,NA,56d0f57421cd29000a9737e4_wolf,wolf,32,2178702,2124,11,chase,dist,0,1,Ms,dist1
2,detect-wolf,04/25/2023,wolf,56d0f57421cd29000a9737e4,NA,56d0f57421cd29000a9737e4_wolf,wolf,33,2184255,922,269,mirror,dist,0,1,CR,dist4
2,detect-wolf,04/25/2023,wolf,56d0f57421cd29000a9737e4,NA,56d0f57421cd29000a9737e4_wolf,wolf,34,2190489,910,134,chase,wolf,1,5,Hit,wolf
2,detect-wolf,04/25/2023,wolf,56d0f57421cd29000a9737e4,NA,56d0f57421cd29000a9737e4_wolf,wolf,35,2196236,948,213,chase,dist,0,1,Ms,dist2
2,detect-wolf,04/25/2023,wolf,56d0f57421cd29000a9737e4,NA,56d0f57421cd29000a9737e4_wolf,wolf,36,2202295,825,299,chase,wolf,1,5,Hit,wolf
2,detect-wolf,04/25/2023,wolf,56d0f57421cd29000a9737e4,NA,56d0f57421cd29000a9737e4_wolf,wolf,37,2209084,1538,268,chase,wolf,1,1,Hit,wolf
2,detect-wolf,04/25/2023,wolf,56d0f57421cd29000a9737e4,NA,56d0f57421cd29000a9737e4_wolf,wolf,38,2214766,1051,300,mirror,dist,0,1,CR,dist6
2,detect-wolf,04/25/2023,wolf,56d0f57421cd29000a9737e4,NA,56d0f57421cd29000a9737e4_wolf,wolf,39,2221377,1107,273,chase,wolf,1,5,Hit,wolf
2,detect-wolf,04/25/2023,wolf,56d0f57421cd29000a9737e4,NA,56d0f57421cd29000a9737e4_wolf,wolf,40,2228256,1987,242,mirror,dist,0,1,CR,dist3
2,detect-wolf,04/25/2023,wolf,56d0f57421cd29000a9737e4,NA,56d0f57421cd29000a9737e4_wolf,wolf,41,2235547,1441,276,mirror,sheep,0,1,CR,sheep
2,detect-wolf,04/25/2023,wolf,56d0f57421cd29000a9737e4,NA,56d0f57421cd29000a9737e4_wolf,wolf,42,2241370,1064,275,mirror,dist,0,1,CR,dist3
2,detect-wolf,04/25/2023,wolf,56d0f57421cd29000a9737e4,NA,56d0f57421cd29000a9737e4_wolf,wolf,43,2247887,1437,277,chase,dist,0,1,Ms,dist1
2,detect-wolf,04/25/2023,wolf,56d0f57421cd29000a9737e4,NA,56d0f57421cd29000a9737e4_wolf,wolf,44,2254344,1351,274,chase,wolf,1,1,Hit,wolf
2,detect-wolf,04/25/2023,wolf,56d0f57421cd29000a9737e4,NA,56d0f57421cd29000a9737e4_wolf,wolf,45,2260608,1496,278,mirror,dist,0,1,CR,dist6
2,detect-wolf,04/25/2023,wolf,56d0f57421cd29000a9737e4,NA,56d0f57421cd29000a9737e4_wolf,wolf,46,2267563,1420,69,mirror,dist,0,1,CR,dist5
2,detect-wolf,04/25/2023,wolf,56d0f57421cd29000a9737e4,NA,56d0f57421cd29000a9737e4_wolf,wolf,47,2273807,1035,10,chase,wolf,1,5,Hit,wolf
2,detect-wolf,04/25/2023,wolf,56d0f57421cd29000a9737e4,NA,56d0f57421cd29000a9737e4_wolf,wolf,48,2280835,1898,279,mirror,dist,0,1,CR,dist2
2,detect-wolf,04/25/2023,wolf,56d0f57421cd29000a9737e4,NA,56d0f57421cd29000a9737e4_wolf,wolf,49,2287185,1126,84,chase,wolf,1,5,Hit,wolf
2,detect-wolf,04/25/2023,wolf,56d0f57421cd29000a9737e4,NA,56d0f57421cd29000a9737e4_wolf,wolf,50,2292934,1117,280,mirror,sheep,0,1,CR,sheep
2,detect-wolf,04/25/2023,wolf,56d0f57421cd29000a9737e4,NA,56d0f57421cd29000a9737e4_wolf,wolf,51,2298872,1295,281,mirror,sheep,0,1,CR,sheep
2,detect-wolf,04/25/2023,wolf,56d0f57421cd29000a9737e4,NA,56d0f57421cd29000a9737e4_wolf,wolf,52,2306315,1382,282,chase,wolf,1,5,Hit,wolf
2,detect-wolf,04/25/2023,wolf,56d0f57421cd29000a9737e4,NA,56d0f57421cd29000a9737e4_wolf,wolf,53,2312710,1164,283,chase,wolf,1,5,Hit,wolf
2,detect-wolf,04/25/2023,wolf,56d0f57421cd29000a9737e4,NA,56d0f57421cd29000a9737e4_wolf,wolf,54,2319582,2047,284,mirror,sheep,0,1,CR,sheep
2,detect-wolf,04/25/2023,wolf,56d0f57421cd29000a9737e4,NA,56d0f57421cd29000a9737e4_wolf,wolf,55,2327004,2217,85,mirror,dist,0,1,CR,dist1
2,detect-wolf,04/25/2023,wolf,56d0f57421cd29000a9737e4,NA,56d0f57421cd29000a9737e4_wolf,wolf,56,2333264,1472,214,mirror,dist,0,1,CR,dist5
2,detect-wolf,04/25/2023,wolf,56d0f57421cd29000a9737e4,NA,56d0f57421cd29000a9737e4_wolf,wolf,57,2339401,667,285,chase,wolf,1,4,Hit,wolf
2,detect-wolf,04/25/2023,wolf,56d0f57421cd29000a9737e4,NA,56d0f57421cd29000a9737e4_wolf,wolf,58,2345599,942,2,chase,dist,0,5,Ms,dist3
2,detect-wolf,04/25/2023,wolf,56d0f57421cd29000a9737e4,NA,56d0f57421cd29000a9737e4_wolf,wolf,59,2351638,740,288,mirror,sheep,0,3,CR,sheep
2,detect-wolf,04/25/2023,wolf,56d0f57421cd29000a9737e4,NA,56d0f57421cd29000a9737e4_wolf,wolf,60,2358125,1235,287,chase,wolf,1,5,Hit,wolf
2,detect-wolf,04/25/2023,wolf,56d0f57421cd29000a9737e4,NA,56d0f57421cd29000a9737e4_wolf,wolf,61,2364347,1036,216,chase,wolf,1,5,Hit,wolf
2,detect-wolf,04/25/2023,wolf,56d0f57421cd29000a9737e4,NA,56d0f57421cd29000a9737e4_wolf,wolf,62,2370770,631,215,chase,dist,0,4,Ms,dist6
2,detect-wolf,04/25/2023,wolf,56d0f57421cd29000a9737e4,NA,56d0f57421cd29000a9737e4_wolf,wolf,63,2377485,927,168,chase,dist,0,3,Ms,dist4
2,detect-wolf,04/25/2023,wolf,56d0f57421cd29000a9737e4,NA,56d0f57421cd29000a9737e4_wolf,wolf,64,2383907,1030,286,mirror,dist,0,1,CR,dist5
2,detect-wolf,04/25/2023,wolf,56d0f57421cd29000a9737e4,NA,56d0f57421cd29000a9737e4_wolf,wolf,65,2391831,2519,289,mirror,dist,0,1,CR,dist4
2,detect-wolf,04/25/2023,wolf,56d0f57421cd29000a9737e4,NA,56d0f57421cd29000a9737e4_wolf,wolf,66,2397814,936,217,mirror,dist,0,1,CR,dist6
2,detect-wolf,04/25/2023,wolf,56d0f57421cd29000a9737e4,NA,56d0f57421cd29000a9737e4_wolf,wolf,67,2404332,1039,137,chase,wolf,1,5,Hit,wolf
2,detect-wolf,04/25/2023,wolf,56d0f57421cd29000a9737e4,NA,56d0f57421cd29000a9737e4_wolf,wolf,68,2410527,1002,251,chase,wolf,1,5,Hit,wolf
2,detect-wolf,04/25/2023,wolf,56d0f57421cd29000a9737e4,NA,56d0f57421cd29000a9737e4_wolf,wolf,69,2417122,806,36,chase,wolf,1,2,Hit,wolf
2,detect-wolf,04/25/2023,wolf,56d0f57421cd29000a9737e4,NA,56d0f57421cd29000a9737e4_wolf,wolf,70,2424643,971,13,chase,wolf,1,2,Hit,wolf
2,detect-wolf,04/25/2023,wolf,56d0f57421cd29000a9737e4,NA,56d0f57421cd29000a9737e4_wolf,wolf,71,2431240,915,130,chase,wolf,1,4,Hit,wolf
2,detect-wolf,04/25/2023,wolf,56d0f57421cd29000a9737e4,NA,56d0f57421cd29000a9737e4_wolf,wolf,72,2438003,1281,220,chase,dist,0,3,Ms,dist4
2,detect-wolf,04/25/2023,wolf,56d0f57421cd29000a9737e4,NA,56d0f57421cd29000a9737e4_wolf,wolf,73,2445847,2556,136,chase,dist,0,1,Ms,dist2
2,detect-wolf,04/25/2023,wolf,56d0f57421cd29000a9737e4,NA,56d0f57421cd29000a9737e4_wolf,wolf,74,2452948,1897,227,mirror,sheep,0,1,CR,sheep
2,detect-wolf,04/25/2023,wolf,56d0f57421cd29000a9737e4,NA,56d0f57421cd29000a9737e4_wolf,wolf,75,2459668,793,165,mirror,dist,0,3,CR,dist5
2,detect-wolf,04/25/2023,wolf,56d0f57421cd29000a9737e4,NA,56d0f57421cd29000a9737e4_wolf,wolf,76,2465717,839,135,chase,wolf,1,4,Hit,wolf
2,detect-wolf,04/25/2023,wolf,56d0f57421cd29000a9737e4,NA,56d0f57421cd29000a9737e4_wolf,wolf,77,2471689,786,163,chase,wolf,1,5,Hit,wolf
2,detect-wolf,04/25/2023,wolf,56d0f57421cd29000a9737e4,NA,56d0f57421cd29000a9737e4_wolf,wolf,78,2477754,831,252,chase,wolf,1,5,Hit,wolf
2,detect-wolf,04/25/2023,wolf,56d0f57421cd29000a9737e4,NA,56d0f57421cd29000a9737e4_wolf,wolf,79,2484662,1116,24,chase,dist,0,3,Ms,dist6
2,detect-wolf,04/25/2023,wolf,56d0f57421cd29000a9737e4,NA,56d0f57421cd29000a9737e4_wolf,wolf,80,2491907,1942,219,mirror,dist,0,1,CR,dist3
2,detect-wolf,04/25/2023,wolf,56d0f57421cd29000a9737e4,NA,56d0f57421cd29000a9737e4_wolf,wolf,81,2499151,2144,167,chase,sheep,0,1,Ms,sheep
2,detect-wolf,04/25/2023,wolf,56d0f57421cd29000a9737e4,NA,56d0f57421cd29000a9737e4_wolf,wolf,82,2507033,963,197,chase,wolf,1,4,Hit,wolf
2,detect-wolf,04/25/2023,wolf,56d0f57421cd29000a9737e4,NA,56d0f57421cd29000a9737e4_wolf,wolf,83,2512862,950,132,mirror,dist,0,2,CR,dist1
2,detect-wolf,04/25/2023,wolf,56d0f57421cd29000a9737e4,NA,56d0f57421cd29000a9737e4_wolf,wolf,84,2520022,2400,74,mirror,wolf,1,1,FA,wolf
2,detect-wolf,04/25/2023,wolf,56d0f57421cd29000a9737e4,NA,56d0f57421cd29000a9737e4_wolf,wolf,85,2526196,827,236,chase,dist,0,5,Ms,dist5
2,detect-wolf,04/25/2023,wolf,56d0f57421cd29000a9737e4,NA,56d0f57421cd29000a9737e4_wolf,wolf,86,2532296,741,164,mirror,dist,0,2,CR,dist6
2,detect-wolf,04/25/2023,wolf,56d0f57421cd29000a9737e4,NA,56d0f57421cd29000a9737e4_wolf,wolf,87,2538634,754,3,chase,wolf,1,1,Hit,wolf
2,detect-wolf,04/25/2023,wolf,56d0f57421cd29000a9737e4,NA,56d0f57421cd29000a9737e4_wolf,wolf,88,2545021,1223,82,chase,wolf,1,1,Hit,wolf
2,detect-wolf,04/25/2023,wolf,56d0f57421cd29000a9737e4,NA,56d0f57421cd29000a9737e4_wolf,wolf,89,2551457,1183,79,mirror,dist,0,1,CR,dist2
2,detect-wolf,04/25/2023,wolf,56d0f57421cd29000a9737e4,NA,56d0f57421cd29000a9737e4_wolf,wolf,90,2559504,1398,77,chase,wolf,1,2,Hit,wolf
2,detect-wolf,04/25/2023,wolf,56d0f57421cd29000a9737e4,NA,56d0f57421cd29000a9737e4_wolf,wolf,91,2565810,970,221,chase,wolf,1,5,Hit,wolf
2,detect-wolf,04/25/2023,wolf,56d0f57421cd29000a9737e4,NA,56d0f57421cd29000a9737e4_wolf,wolf,92,2572115,922,5,chase,wolf,1,5,Hit,wolf
2,detect-wolf,04/25/2023,wolf,56d0f57421cd29000a9737e4,NA,56d0f57421cd29000a9737e4_wolf,wolf,93,2579545,2049,196,mirror,dist,0,1,CR,dist2
2,detect-wolf,04/25/2023,wolf,56d0f57421cd29000a9737e4,NA,56d0f57421cd29000a9737e4_wolf,wolf,94,2585964,1109,245,chase,wolf,1,5,Hit,wolf
2,detect-wolf,04/25/2023,wolf,56d0f57421cd29000a9737e4,NA,56d0f57421cd29000a9737e4_wolf,wolf,95,2592776,1015,88,mirror,dist,0,1,CR,dist1
2,detect-wolf,04/25/2023,wolf,56d0f57421cd29000a9737e4,NA,56d0f57421cd29000a9737e4_wolf,wolf,96,2599927,2056,162,mirror,dist,0,1,CR,dist6
2,detect-wolf,04/25/2023,wolf,56d0f57421cd29000a9737e4,NA,56d0f57421cd29000a9737e4_wolf,wolf,97,2607170,2357,78,mirror,dist,0,1,CR,dist3
2,detect-wolf,04/25/2023,wolf,56d0f57421cd29000a9737e4,NA,56d0f57421cd29000a9737e4_wolf,wolf,98,2613232,1267,86,mirror,wolf,1,1,FA,wolf
2,detect-wolf,04/25/2023,wolf,56d0f57421cd29000a9737e4,NA,56d0f57421cd29000a9737e4_wolf,wolf,99,2621294,2803,81,mirror,wolf,1,1,FA,wolf
2,detect-wolf,04/25/2023,wolf,56d0f57421cd29000a9737e4,NA,56d0f57421cd29000a9737e4_wolf,wolf,100,2627871,1667,131,mirror,dist,0,1,CR,dist2
2,detect-wolf,04/25/2023,wolf,57d1d04593d4400001cdc0db,NA,57d1d04593d4400001cdc0db_wolf,wolf,1,294060,1444.8,258,mirror,dist,0,2,CR,dist4
2,detect-wolf,04/25/2023,wolf,57d1d04593d4400001cdc0db,NA,57d1d04593d4400001cdc0db_wolf,wolf,2,301165,1394.8,8,chase,wolf,1,1,Hit,wolf
2,detect-wolf,04/25/2023,wolf,57d1d04593d4400001cdc0db,NA,57d1d04593d4400001cdc0db_wolf,wolf,3,307474,968.5,7,chase,wolf,1,5,Hit,wolf
2,detect-wolf,04/25/2023,wolf,57d1d04593d4400001cdc0db,NA,57d1d04593d4400001cdc0db_wolf,wolf,4,313805,978,275,mirror,dist,0,2,CR,dist2
2,detect-wolf,04/25/2023,wolf,57d1d04593d4400001cdc0db,NA,57d1d04593d4400001cdc0db_wolf,wolf,5,320473,736.3,291,mirror,dist,0,3,CR,dist6
2,detect-wolf,04/25/2023,wolf,57d1d04593d4400001cdc0db,NA,57d1d04593d4400001cdc0db_wolf,wolf,6,329442,1736.3,11,chase,dist,0,1,Ms,dist5
2,detect-wolf,04/25/2023,wolf,57d1d04593d4400001cdc0db,NA,57d1d04593d4400001cdc0db_wolf,wolf,7,337522,1932.5,82,chase,wolf,1,1,Hit,wolf
2,detect-wolf,04/25/2023,wolf,57d1d04593d4400001cdc0db,NA,57d1d04593d4400001cdc0db_wolf,wolf,8,343998,758.8,294,chase,dist,0,2,Ms,dist1
2,detect-wolf,04/25/2023,wolf,57d1d04593d4400001cdc0db,NA,57d1d04593d4400001cdc0db_wolf,wolf,9,350489,785.7,286,chase,sheep,0,1,Ms,sheep
2,detect-wolf,04/25/2023,wolf,57d1d04593d4400001cdc0db,NA,57d1d04593d4400001cdc0db_wolf,wolf,10,359032,2770.3,283,chase,sheep,0,1,Ms,sheep
2,detect-wolf,04/25/2023,wolf,57d1d04593d4400001cdc0db,NA,57d1d04593d4400001cdc0db_wolf,wolf,11,365170,738.8,37,chase,wolf,1,5,Hit,wolf
2,detect-wolf,04/25/2023,wolf,57d1d04593d4400001cdc0db,NA,57d1d04593d4400001cdc0db_wolf,wolf,12,373190,2973.7,285,mirror,dist,0,1,CR,dist2
2,detect-wolf,04/25/2023,wolf,57d1d04593d4400001cdc0db,NA,57d1d04593d4400001cdc0db_wolf,wolf,13,380562,1763.6,271,chase,dist,0,1,Ms,dist2
2,detect-wolf,04/25/2023,wolf,57d1d04593d4400001cdc0db,NA,57d1d04593d4400001cdc0db_wolf,wolf,14,388039,2093.1,274,mirror,dist,0,1,CR,dist2
2,detect-wolf,04/25/2023,wolf,57d1d04593d4400001cdc0db,NA,57d1d04593d4400001cdc0db_wolf,wolf,15,395742,2102.7,23,mirror,dist,0,1,CR,dist4
2,detect-wolf,04/25/2023,wolf,57d1d04593d4400001cdc0db,NA,57d1d04593d4400001cdc0db_wolf,wolf,16,401801,1242.4,273,mirror,dist,0,1,CR,dist3
2,detect-wolf,04/25/2023,wolf,57d1d04593d4400001cdc0db,NA,57d1d04593d4400001cdc0db_wolf,wolf,17,408241,1249.8,26,chase,wolf,1,4,Hit,wolf
2,detect-wolf,04/25/2023,wolf,57d1d04593d4400001cdc0db,NA,57d1d04593d4400001cdc0db_wolf,wolf,18,415761,2136.4,290,chase,dist,0,2,Ms,dist4
2,detect-wolf,04/25/2023,wolf,57d1d04593d4400001cdc0db,NA,57d1d04593d4400001cdc0db_wolf,wolf,19,422385,1205.8,296,mirror,dist,0,1,CR,dist6
2,detect-wolf,04/25/2023,wolf,57d1d04593d4400001cdc0db,NA,57d1d04593d4400001cdc0db_wolf,wolf,20,430401,914.5,282,chase,dist,0,4,Ms,dist2
2,detect-wolf,04/25/2023,wolf,57d1d04593d4400001cdc0db,NA,57d1d04593d4400001cdc0db_wolf,wolf,21,436739,941.8,22,chase,wolf,1,5,Hit,wolf
2,detect-wolf,04/25/2023,wolf,57d1d04593d4400001cdc0db,NA,57d1d04593d4400001cdc0db_wolf,wolf,22,443058,888.6,91,mirror,dist,0,2,CR,dist3
2,detect-wolf,04/25/2023,wolf,57d1d04593d4400001cdc0db,NA,57d1d04593d4400001cdc0db_wolf,wolf,23,449294,864.3,6,chase,wolf,1,4,Hit,wolf
2,detect-wolf,04/25/2023,wolf,57d1d04593d4400001cdc0db,NA,57d1d04593d4400001cdc0db_wolf,wolf,24,456176,1105.4,157,mirror,dist,0,3,CR,dist5
2,detect-wolf,04/25/2023,wolf,57d1d04593d4400001cdc0db,NA,57d1d04593d4400001cdc0db_wolf,wolf,25,462147,1195,24,mirror,dist,0,1,CR,dist4
2,detect-wolf,04/25/2023,wolf,57d1d04593d4400001cdc0db,NA,57d1d04593d4400001cdc0db_wolf,wolf,26,468244,1271.7,165,mirror,dist,0,1,CR,dist6
2,detect-wolf,04/25/2023,wolf,57d1d04593d4400001cdc0db,NA,57d1d04593d4400001cdc0db_wolf,wolf,27,474026,928.9,118,chase,dist,0,1,Ms,dist6
2,detect-wolf,04/25/2023,wolf,57d1d04593d4400001cdc0db,NA,57d1d04593d4400001cdc0db_wolf,wolf,28,481346,1652.7,34,mirror,wolf,1,2,FA,wolf
2,detect-wolf,04/25/2023,wolf,57d1d04593d4400001cdc0db,NA,57d1d04593d4400001cdc0db_wolf,wolf,29,488190,845.4,106,chase,wolf,1,1,Hit,wolf
2,detect-wolf,04/25/2023,wolf,57d1d04593d4400001cdc0db,NA,57d1d04593d4400001cdc0db_wolf,wolf,30,494010,682.3,18,mirror,wolf,1,2,FA,wolf
2,detect-wolf,04/25/2023,wolf,57d1d04593d4400001cdc0db,NA,57d1d04593d4400001cdc0db_wolf,wolf,31,499746,805.8,31,mirror,dist,0,2,CR,dist1
2,detect-wolf,04/25/2023,wolf,57d1d04593d4400001cdc0db,NA,57d1d04593d4400001cdc0db_wolf,wolf,32,507516,1254.7,154,chase,dist,0,2,Ms,dist5
2,detect-wolf,04/25/2023,wolf,57d1d04593d4400001cdc0db,NA,57d1d04593d4400001cdc0db_wolf,wolf,33,513804,961.9,80,mirror,dist,0,1,CR,dist2
2,detect-wolf,04/25/2023,wolf,57d1d04593d4400001cdc0db,NA,57d1d04593d4400001cdc0db_wolf,wolf,34,519834,807,156,chase,wolf,1,4,Hit,wolf
2,detect-wolf,04/25/2023,wolf,57d1d04593d4400001cdc0db,NA,57d1d04593d4400001cdc0db_wolf,wolf,35,526160,1219,28,chase,dist,0,1,Ms,dist4
2,detect-wolf,04/25/2023,wolf,57d1d04593d4400001cdc0db,NA,57d1d04593d4400001cdc0db_wolf,wolf,36,533330,2360,288,mirror,sheep,0,1,CR,sheep
2,detect-wolf,04/25/2023,wolf,57d1d04593d4400001cdc0db,NA,57d1d04593d4400001cdc0db_wolf,wolf,37,539890,865,277,mirror,dist,0,4,CR,dist6
2,detect-wolf,04/25/2023,wolf,57d1d04593d4400001cdc0db,NA,57d1d04593d4400001cdc0db_wolf,wolf,38,545802,882.3,36,chase,dist,0,2,Ms,dist5
2,detect-wolf,04/25/2023,wolf,57d1d04593d4400001cdc0db,NA,57d1d04593d4400001cdc0db_wolf,wolf,39,552001,887.6,39,chase,wolf,1,4,Hit,wolf
2,detect-wolf,04/25/2023,wolf,57d1d04593d4400001cdc0db,NA,57d1d04593d4400001cdc0db_wolf,wolf,40,558024,1211.6,183,mirror,dist,0,1,CR,dist5
2,detect-wolf,04/25/2023,wolf,57d1d04593d4400001cdc0db,NA,57d1d04593d4400001cdc0db_wolf,wolf,41,564979,2294.8,121,mirror,wolf,1,1,FA,wolf
2,detect-wolf,04/25/2023,wolf,57d1d04593d4400001cdc0db,NA,57d1d04593d4400001cdc0db_wolf,wolf,42,572282,2342.2,95,chase,wolf,1,2,Hit,wolf
2,detect-wolf,04/25/2023,wolf,57d1d04593d4400001cdc0db,NA,57d1d04593d4400001cdc0db_wolf,wolf,43,578913,970.6,94,chase,wolf,1,1,Hit,wolf
2,detect-wolf,04/25/2023,wolf,57d1d04593d4400001cdc0db,NA,57d1d04593d4400001cdc0db_wolf,wolf,44,586409,1712.8,186,chase,wolf,1,2,Hit,wolf
2,detect-wolf,04/25/2023,wolf,57d1d04593d4400001cdc0db,NA,57d1d04593d4400001cdc0db_wolf,wolf,45,592408,1174.6,177,mirror,dist,0,1,CR,dist6
2,detect-wolf,04/25/2023,wolf,57d1d04593d4400001cdc0db,NA,57d1d04593d4400001cdc0db_wolf,wolf,46,598665,1443.5,292,mirror,dist,0,1,CR,dist1
2,detect-wolf,04/25/2023,wolf,57d1d04593d4400001cdc0db,NA,57d1d04593d4400001cdc0db_wolf,wolf,47,678959,1018.6,102,chase,dist,0,1,Ms,dist2
2,detect-wolf,04/25/2023,wolf,57d1d04593d4400001cdc0db,NA,57d1d04593d4400001cdc0db_wolf,wolf,48,686184,1762.6,21,mirror,dist,0,1,CR,dist2
2,detect-wolf,04/25/2023,wolf,57d1d04593d4400001cdc0db,NA,57d1d04593d4400001cdc0db_wolf,wolf,49,692329,826.9,270,chase,wolf,1,4,Hit,wolf
2,detect-wolf,04/25/2023,wolf,57d1d04593d4400001cdc0db,NA,57d1d04593d4400001cdc0db_wolf,wolf,50,698501,907.1,295,chase,dist,0,3,Ms,dist5
2,detect-wolf,04/25/2023,wolf,57d1d04593d4400001cdc0db,NA,57d1d04593d4400001cdc0db_wolf,wolf,51,704338,1083.8,30,chase,wolf,1,5,Hit,wolf
2,detect-wolf,04/25/2023,wolf,57d1d04593d4400001cdc0db,NA,57d1d04593d4400001cdc0db_wolf,wolf,52,711144,1732.6,5,mirror,sheep,0,1,CR,sheep
2,detect-wolf,04/25/2023,wolf,57d1d04593d4400001cdc0db,NA,57d1d04593d4400001cdc0db_wolf,wolf,53,717393,611.3,27,chase,wolf,1,3,Hit,wolf
2,detect-wolf,04/25/2023,wolf,57d1d04593d4400001cdc0db,NA,57d1d04593d4400001cdc0db_wolf,wolf,54,724073,1417.4,4,mirror,sheep,0,1,CR,sheep
2,detect-wolf,04/25/2023,wolf,57d1d04593d4400001cdc0db,NA,57d1d04593d4400001cdc0db_wolf,wolf,55,731000,2028,184,mirror,dist,0,1,CR,dist1
2,detect-wolf,04/25/2023,wolf,57d1d04593d4400001cdc0db,NA,57d1d04593d4400001cdc0db_wolf,wolf,56,736771,848.7,20,chase,dist,0,4,Ms,dist1
2,detect-wolf,04/25/2023,wolf,57d1d04593d4400001cdc0db,NA,57d1d04593d4400001cdc0db_wolf,wolf,57,743466,1161.6,35,mirror,dist,0,3,CR,dist1
2,detect-wolf,04/25/2023,wolf,57d1d04593d4400001cdc0db,NA,57d1d04593d4400001cdc0db_wolf,wolf,58,776463,27906.5,279,mirror,sheep,0,1,CR,sheep
2,detect-wolf,04/25/2023,wolf,57d1d04593d4400001cdc0db,NA,57d1d04593d4400001cdc0db_wolf,wolf,59,783531,1412.1,19,mirror,dist,0,1,CR,dist3
2,detect-wolf,04/25/2023,wolf,57d1d04593d4400001cdc0db,NA,57d1d04593d4400001cdc0db_wolf,wolf,60,789910,1379,147,mirror,dist,0,1,CR,dist1
2,detect-wolf,04/25/2023,wolf,57d1d04593d4400001cdc0db,NA,57d1d04593d4400001cdc0db_wolf,wolf,61,795670,985.9,191,chase,dist,0,1,Ms,dist4
2,detect-wolf,04/25/2023,wolf,57d1d04593d4400001cdc0db,NA,57d1d04593d4400001cdc0db_wolf,wolf,62,801767,765.5,104,chase,wolf,1,3,Hit,wolf
2,detect-wolf,04/25/2023,wolf,57d1d04593d4400001cdc0db,NA,57d1d04593d4400001cdc0db_wolf,wolf,63,807734,900.1,163,mirror,dist,0,1,CR,dist3
2,detect-wolf,04/25/2023,wolf,57d1d04593d4400001cdc0db,NA,57d1d04593d4400001cdc0db_wolf,wolf,64,813750,1259.5,188,chase,dist,0,1,Ms,dist3
2,detect-wolf,04/25/2023,wolf,57d1d04593d4400001cdc0db,NA,57d1d04593d4400001cdc0db_wolf,wolf,65,822121,2176.6,173,chase,wolf,1,1,Hit,wolf
2,detect-wolf,04/25/2023,wolf,57d1d04593d4400001cdc0db,NA,57d1d04593d4400001cdc0db_wolf,wolf,66,828822,2009.1,98,chase,wolf,1,1,Hit,wolf
2,detect-wolf,04/25/2023,wolf,57d1d04593d4400001cdc0db,NA,57d1d04593d4400001cdc0db_wolf,wolf,67,835867,743.6,123,mirror,dist,0,3,CR,dist5
2,detect-wolf,04/25/2023,wolf,57d1d04593d4400001cdc0db,NA,57d1d04593d4400001cdc0db_wolf,wolf,68,841975,1327.1,201,chase,dist,0,1,Ms,dist2
2,detect-wolf,04/25/2023,wolf,57d1d04593d4400001cdc0db,NA,57d1d04593d4400001cdc0db_wolf,wolf,69,848343,1752.6,3,mirror,dist,0,1,CR,dist2
2,detect-wolf,04/25/2023,wolf,57d1d04593d4400001cdc0db,NA,57d1d04593d4400001cdc0db_wolf,wolf,70,854849,837.2,81,chase,wolf,1,4,Hit,wolf
2,detect-wolf,04/25/2023,wolf,57d1d04593d4400001cdc0db,NA,57d1d04593d4400001cdc0db_wolf,wolf,71,860863,1238.6,124,mirror,wolf,1,1,FA,wolf
2,detect-wolf,04/25/2023,wolf,57d1d04593d4400001cdc0db,NA,57d1d04593d4400001cdc0db_wolf,wolf,72,867023,996.3,209,chase,wolf,1,3,Hit,wolf
2,detect-wolf,04/25/2023,wolf,57d1d04593d4400001cdc0db,NA,57d1d04593d4400001cdc0db_wolf,wolf,73,873230,1570.3,297,mirror,dist,0,1,CR,dist6
2,detect-wolf,04/25/2023,wolf,57d1d04593d4400001cdc0db,NA,57d1d04593d4400001cdc0db_wolf,wolf,74,879199,1157.7,33,chase,dist,0,1,Ms,dist4
2,detect-wolf,04/25/2023,wolf,57d1d04593d4400001cdc0db,NA,57d1d04593d4400001cdc0db_wolf,wolf,75,886136,2117.1,78,mirror,dist,0,1,CR,dist5
2,detect-wolf,04/25/2023,wolf,57d1d04593d4400001cdc0db,NA,57d1d04593d4400001cdc0db_wolf,wolf,76,892510,1359.3,138,chase,sheep,0,1,Ms,sheep
2,detect-wolf,04/25/2023,wolf,57d1d04593d4400001cdc0db,NA,57d1d04593d4400001cdc0db_wolf,wolf,77,898432,1118.8,15,mirror,dist,0,1,CR,dist4
2,detect-wolf,04/25/2023,wolf,57d1d04593d4400001cdc0db,NA,57d1d04593d4400001cdc0db_wolf,wolf,78,904695,1235.3,229,chase,wolf,1,4,Hit,wolf
2,detect-wolf,04/25/2023,wolf,57d1d04593d4400001cdc0db,NA,57d1d04593d4400001cdc0db_wolf,wolf,79,910302,767.4,160,mirror,dist,0,4,CR,dist2
2,detect-wolf,04/25/2023,wolf,57d1d04593d4400001cdc0db,NA,57d1d04593d4400001cdc0db_wolf,wolf,80,916159,848.2,14,chase,dist,0,1,Ms,dist1
2,detect-wolf,04/25/2023,wolf,57d1d04593d4400001cdc0db,NA,57d1d04593d4400001cdc0db_wolf,wolf,81,921918,976.7,287,chase,wolf,1,5,Hit,wolf
2,detect-wolf,04/25/2023,wolf,57d1d04593d4400001cdc0db,NA,57d1d04593d4400001cdc0db_wolf,wolf,82,929466,1105.5,159,mirror,dist,0,2,CR,dist3
2,detect-wolf,04/25/2023,wolf,57d1d04593d4400001cdc0db,NA,57d1d04593d4400001cdc0db_wolf,wolf,83,935511,1333.1,142,mirror,wolf,1,1,FA,wolf
2,detect-wolf,04/25/2023,wolf,57d1d04593d4400001cdc0db,NA,57d1d04593d4400001cdc0db_wolf,wolf,84,941935,937.3,265,chase,dist,0,2,Ms,dist5
2,detect-wolf,04/25/2023,wolf,57d1d04593d4400001cdc0db,NA,57d1d04593d4400001cdc0db_wolf,wolf,85,947977,1360.9,252,mirror,wolf,1,1,FA,wolf
2,detect-wolf,04/25/2023,wolf,57d1d04593d4400001cdc0db,NA,57d1d04593d4400001cdc0db_wolf,wolf,86,954398,1416.8,203,mirror,sheep,0,1,CR,sheep
2,detect-wolf,04/25/2023,wolf,57d1d04593d4400001cdc0db,NA,57d1d04593d4400001cdc0db_wolf,wolf,87,960001,842.7,12,mirror,dist,0,1,CR,dist1
2,detect-wolf,04/25/2023,wolf,57d1d04593d4400001cdc0db,NA,57d1d04593d4400001cdc0db_wolf,wolf,88,966198,958.8,126,chase,dist,0,4,Ms,dist3
2,detect-wolf,04/25/2023,wolf,57d1d04593d4400001cdc0db,NA,57d1d04593d4400001cdc0db_wolf,wolf,89,972467,1480.3,166,mirror,dist,0,2,CR,dist2
2,detect-wolf,04/25/2023,wolf,57d1d04593d4400001cdc0db,NA,57d1d04593d4400001cdc0db_wolf,wolf,90,978872,1310.2,111,mirror,dist,0,1,CR,dist3
2,detect-wolf,04/25/2023,wolf,57d1d04593d4400001cdc0db,NA,57d1d04593d4400001cdc0db_wolf,wolf,91,985041,717.2,137,chase,wolf,1,5,Hit,wolf
2,detect-wolf,04/25/2023,wolf,57d1d04593d4400001cdc0db,NA,57d1d04593d4400001cdc0db_wolf,wolf,92,991032,1034.8,172,mirror,dist,0,1,CR,dist1
2,detect-wolf,04/25/2023,wolf,57d1d04593d4400001cdc0db,NA,57d1d04593d4400001cdc0db_wolf,wolf,93,997865,1840.5,210,chase,sheep,0,1,Ms,sheep
2,detect-wolf,04/25/2023,wolf,57d1d04593d4400001cdc0db,NA,57d1d04593d4400001cdc0db_wolf,wolf,94,1003633,750.7,228,chase,dist,0,2,Ms,dist1
2,detect-wolf,04/25/2023,wolf,57d1d04593d4400001cdc0db,NA,57d1d04593d4400001cdc0db_wolf,wolf,95,1009845,795.6,222,chase,wolf,1,4,Hit,wolf
2,detect-wolf,04/25/2023,wolf,57d1d04593d4400001cdc0db,NA,57d1d04593d4400001cdc0db_wolf,wolf,96,1015802,1138.6,32,mirror,dist,0,1,CR,dist4
2,detect-wolf,04/25/2023,wolf,57d1d04593d4400001cdc0db,NA,57d1d04593d4400001cdc0db_wolf,wolf,97,1022753,1599.3,216,mirror,wolf,1,1,FA,wolf
2,detect-wolf,04/25/2023,wolf,57d1d04593d4400001cdc0db,NA,57d1d04593d4400001cdc0db_wolf,wolf,98,1029210,1191.9,262,mirror,wolf,1,1,FA,wolf
2,detect-wolf,04/25/2023,wolf,57d1d04593d4400001cdc0db,NA,57d1d04593d4400001cdc0db_wolf,wolf,99,1035505,972.2,25,mirror,dist,0,3,CR,dist4
2,detect-wolf,04/25/2023,wolf,57d1d04593d4400001cdc0db,NA,57d1d04593d4400001cdc0db_wolf,wolf,100,1041146,836.7,38,chase,wolf,1,5,Hit,wolf
2,detect-wolf,04/25/2023,wolf,586c89be73ee610001418542,NA,586c89be73ee610001418542_wolf,wolf,1,241827,1516,264,mirror,wolf,1,1,FA,wolf
2,detect-wolf,04/25/2023,wolf,586c89be73ee610001418542,NA,586c89be73ee610001418542_wolf,wolf,2,250294,1610,260,chase,wolf,1,2,Hit,wolf
2,detect-wolf,04/25/2023,wolf,586c89be73ee610001418542,NA,586c89be73ee610001418542_wolf,wolf,3,257936,2158,295,mirror,dist,0,1,CR,dist4
2,detect-wolf,04/25/2023,wolf,586c89be73ee610001418542,NA,586c89be73ee610001418542_wolf,wolf,4,265161,2060,230,mirror,wolf,1,1,FA,wolf
2,detect-wolf,04/25/2023,wolf,586c89be73ee610001418542,NA,586c89be73ee610001418542_wolf,wolf,5,271447,1144,195,chase,wolf,1,5,Hit,wolf
2,detect-wolf,04/25/2023,wolf,586c89be73ee610001418542,NA,586c89be73ee610001418542_wolf,wolf,6,278471,1827,294,mirror,wolf,1,1,FA,wolf
2,detect-wolf,04/25/2023,wolf,586c89be73ee610001418542,NA,586c89be73ee610001418542_wolf,wolf,7,285000,1527,183,mirror,sheep,0,1,CR,sheep
2,detect-wolf,04/25/2023,wolf,586c89be73ee610001418542,NA,586c89be73ee610001418542_wolf,wolf,8,291372,1244,225,chase,wolf,1,5,Hit,wolf
2,detect-wolf,04/25/2023,wolf,586c89be73ee610001418542,NA,586c89be73ee610001418542_wolf,wolf,9,297637,1111,115,mirror,dist,0,3,CR,dist4
2,detect-wolf,04/25/2023,wolf,586c89be73ee610001418542,NA,586c89be73ee610001418542_wolf,wolf,10,305079,2043,298,mirror,dist,0,2,CR,dist4
2,detect-wolf,04/25/2023,wolf,586c89be73ee610001418542,NA,586c89be73ee610001418542_wolf,wolf,11,312939,2726,100,mirror,dist,0,1,CR,dist4
2,detect-wolf,04/25/2023,wolf,586c89be73ee610001418542,NA,586c89be73ee610001418542_wolf,wolf,12,319014,976,42,chase,wolf,1,5,Hit,wolf
2,detect-wolf,04/25/2023,wolf,586c89be73ee610001418542,NA,586c89be73ee610001418542_wolf,wolf,13,325224,1079,135,chase,wolf,1,5,Hit,wolf
2,detect-wolf,04/25/2023,wolf,586c89be73ee610001418542,NA,586c89be73ee610001418542_wolf,wolf,14,332353,1977,271,mirror,dist,0,1,CR,dist3
2,detect-wolf,04/25/2023,wolf,586c89be73ee610001418542,NA,586c89be73ee610001418542_wolf,wolf,15,338935,1561,29,mirror,dist,0,1,CR,dist1
2,detect-wolf,04/25/2023,wolf,586c89be73ee610001418542,NA,586c89be73ee610001418542_wolf,wolf,16,345039,1161,289,chase,wolf,1,5,Hit,wolf
2,detect-wolf,04/25/2023,wolf,586c89be73ee610001418542,NA,586c89be73ee610001418542_wolf,wolf,17,351349,1211,52,mirror,dist,0,1,CR,dist6
2,detect-wolf,04/25/2023,wolf,586c89be73ee610001418542,NA,586c89be73ee610001418542_wolf,wolf,18,358055,1225,106,mirror,dist,0,5,CR,dist4
2,detect-wolf,04/25/2023,wolf,586c89be73ee610001418542,NA,586c89be73ee610001418542_wolf,wolf,19,368616,1495,276,mirror,dist,0,2,CR,dist2
2,detect-wolf,04/25/2023,wolf,586c89be73ee610001418542,NA,586c89be73ee610001418542_wolf,wolf,20,375695,2050,300,mirror,dist,0,1,CR,dist1
2,detect-wolf,04/25/2023,wolf,586c89be73ee610001418542,NA,586c89be73ee610001418542_wolf,wolf,21,382035,1310,297,mirror,dist,0,1,CR,dist3
2,detect-wolf,04/25/2023,wolf,586c89be73ee610001418542,NA,586c89be73ee610001418542_wolf,wolf,22,388654,1579,221,mirror,wolf,1,1,FA,wolf
2,detect-wolf,04/25/2023,wolf,586c89be73ee610001418542,NA,586c89be73ee610001418542_wolf,wolf,23,394975,1029,224,chase,wolf,1,5,Hit,wolf
2,detect-wolf,04/25/2023,wolf,586c89be73ee610001418542,NA,586c89be73ee610001418542_wolf,wolf,24,401407,1179,134,mirror,dist,0,3,CR,dist6
2,detect-wolf,04/25/2023,wolf,586c89be73ee610001418542,NA,586c89be73ee610001418542_wolf,wolf,25,408454,1878,296,mirror,dist,0,2,CR,dist4
2,detect-wolf,04/25/2023,wolf,586c89be73ee610001418542,NA,586c89be73ee610001418542_wolf,wolf,26,414803,1044,16,chase,wolf,1,5,Hit,wolf
2,detect-wolf,04/25/2023,wolf,586c89be73ee610001418542,NA,586c89be73ee610001418542_wolf,wolf,27,422766,2894,277,chase,dist,0,1,Ms,dist4
2,detect-wolf,04/25/2023,wolf,586c89be73ee610001418542,NA,586c89be73ee610001418542_wolf,wolf,28,429684,1744,256,mirror,dist,0,1,CR,dist5
2,detect-wolf,04/25/2023,wolf,586c89be73ee610001418542,NA,586c89be73ee610001418542_wolf,wolf,29,436160,1428,251,mirror,dist,0,1,CR,dist1
2,detect-wolf,04/25/2023,wolf,586c89be73ee610001418542,NA,586c89be73ee610001418542_wolf,wolf,30,442125,1009,101,chase,wolf,1,5,Hit,wolf
2,detect-wolf,04/25/2023,wolf,586c89be73ee610001418542,NA,586c89be73ee610001418542_wolf,wolf,31,448467,1282,78,chase,wolf,1,5,Hit,wolf
2,detect-wolf,04/25/2023,wolf,586c89be73ee610001418542,NA,586c89be73ee610001418542_wolf,wolf,32,454663,1143,203,mirror,dist,0,2,CR,dist3
2,detect-wolf,04/25/2023,wolf,586c89be73ee610001418542,NA,586c89be73ee610001418542_wolf,wolf,33,463760,3957,293,chase,dist,0,1,Ms,dist2
2,detect-wolf,04/25/2023,wolf,586c89be73ee610001418542,NA,586c89be73ee610001418542_wolf,wolf,34,470386,1477,154,mirror,dist,0,1,CR,dist2
2,detect-wolf,04/25/2023,wolf,586c89be73ee610001418542,NA,586c89be73ee610001418542_wolf,wolf,35,476648,1127,198,mirror,wolf,1,1,FA,wolf
2,detect-wolf,04/25/2023,wolf,586c89be73ee610001418542,NA,586c89be73ee610001418542_wolf,wolf,36,482682,1060,28,chase,wolf,1,5,Hit,wolf
2,detect-wolf,04/25/2023,wolf,586c89be73ee610001418542,NA,586c89be73ee610001418542_wolf,wolf,37,488935,1158,292,mirror,dist,0,1,CR,dist1
2,detect-wolf,04/25/2023,wolf,586c89be73ee610001418542,NA,586c89be73ee610001418542_wolf,wolf,38,495455,1459,259,mirror,dist,0,1,CR,dist3
2,detect-wolf,04/25/2023,wolf,586c89be73ee610001418542,NA,586c89be73ee610001418542_wolf,wolf,39,501838,1330,123,mirror,dist,0,1,CR,dist5
2,detect-wolf,04/25/2023,wolf,586c89be73ee610001418542,NA,586c89be73ee610001418542_wolf,wolf,40,507965,1081,290,mirror,wolf,1,1,FA,wolf
2,detect-wolf,04/25/2023,wolf,586c89be73ee610001418542,NA,586c89be73ee610001418542_wolf,wolf,41,514280,1239,51,chase,wolf,1,1,Hit,wolf
2,detect-wolf,04/25/2023,wolf,586c89be73ee610001418542,NA,586c89be73ee610001418542_wolf,wolf,42,519943,742,99,chase,wolf,1,5,Hit,wolf
2,detect-wolf,04/25/2023,wolf,586c89be73ee610001418542,NA,586c89be73ee610001418542_wolf,wolf,43,526275,1077,48,chase,wolf,1,5,Hit,wolf
2,detect-wolf,04/25/2023,wolf,586c89be73ee610001418542,NA,586c89be73ee610001418542_wolf,wolf,44,533343,2243,270,mirror,dist,0,1,CR,dist1
2,detect-wolf,04/25/2023,wolf,586c89be73ee610001418542,NA,586c89be73ee610001418542_wolf,wolf,45,539272,1079,299,chase,wolf,1,5,Hit,wolf
2,detect-wolf,04/25/2023,wolf,586c89be73ee610001418542,NA,586c89be73ee610001418542_wolf,wolf,46,545349,1228,132,chase,wolf,1,5,Hit,wolf
2,detect-wolf,04/25/2023,wolf,586c89be73ee610001418542,NA,586c89be73ee610001418542_wolf,wolf,47,552958,2827,284,mirror,dist,0,1,CR,dist5
2,detect-wolf,04/25/2023,wolf,586c89be73ee610001418542,NA,586c89be73ee610001418542_wolf,wolf,48,560171,2427,291,mirror,dist,0,1,CR,dist3
2,detect-wolf,04/25/2023,wolf,586c89be73ee610001418542,NA,586c89be73ee610001418542_wolf,wolf,49,567456,2423,133,chase,dist,0,1,Ms,dist3
2,detect-wolf,04/25/2023,wolf,586c89be73ee610001418542,NA,586c89be73ee610001418542_wolf,wolf,50,575318,2544,274,chase,wolf,1,5,Hit,wolf
2,detect-wolf,04/25/2023,wolf,586c89be73ee610001418542,NA,586c89be73ee610001418542_wolf,wolf,51,581509,1177,137,mirror,dist,0,2,CR,dist6
2,detect-wolf,04/25/2023,wolf,586c89be73ee610001418542,NA,586c89be73ee610001418542_wolf,wolf,52,587504,1095,234,chase,dist,0,1,Ms,dist6
2,detect-wolf,04/25/2023,wolf,586c89be73ee610001418542,NA,586c89be73ee610001418542_wolf,wolf,53,593613,1244,262,mirror,dist,0,2,CR,dist6
2,detect-wolf,04/25/2023,wolf,586c89be73ee610001418542,NA,586c89be73ee610001418542_wolf,wolf,54,599746,1191,245,chase,wolf,1,5,Hit,wolf
2,detect-wolf,04/25/2023,wolf,586c89be73ee610001418542,NA,586c89be73ee610001418542_wolf,wolf,55,605901,1211,12,chase,wolf,1,5,Hit,wolf
2,detect-wolf,04/25/2023,wolf,586c89be73ee610001418542,NA,586c89be73ee610001418542_wolf,wolf,56,612652,1095,273,mirror,dist,0,1,CR,dist4
2,detect-wolf,04/25/2023,wolf,586c89be73ee610001418542,NA,586c89be73ee610001418542_wolf,wolf,57,618446,978,97,mirror,dist,0,5,CR,dist5
2,detect-wolf,04/25/2023,wolf,586c89be73ee610001418542,NA,586c89be73ee610001418542_wolf,wolf,58,624526,1178,208,mirror,dist,0,1,CR,dist2
2,detect-wolf,04/25/2023,wolf,586c89be73ee610001418542,NA,586c89be73ee610001418542_wolf,wolf,59,630730,1361,66,mirror,dist,0,2,CR,dist4
2,detect-wolf,04/25/2023,wolf,586c89be73ee610001418542,NA,586c89be73ee610001418542_wolf,wolf,60,637204,1694,263,mirror,dist,0,2,CR,dist5
2,detect-wolf,04/25/2023,wolf,586c89be73ee610001418542,NA,586c89be73ee610001418542_wolf,wolf,61,644182,1415,265,chase,wolf,1,5,Hit,wolf
2,detect-wolf,04/25/2023,wolf,586c89be73ee610001418542,NA,586c89be73ee610001418542_wolf,wolf,62,650193,1077,250,chase,wolf,1,5,Hit,wolf
2,detect-wolf,04/25/2023,wolf,586c89be73ee610001418542,NA,586c89be73ee610001418542_wolf,wolf,63,656287,1259,58,mirror,sheep,0,1,CR,sheep
2,detect-wolf,04/25/2023,wolf,586c89be73ee610001418542,NA,586c89be73ee610001418542_wolf,wolf,64,662559,1410,152,mirror,dist,0,2,CR,dist3
2,detect-wolf,04/25/2023,wolf,586c89be73ee610001418542,NA,586c89be73ee610001418542_wolf,wolf,65,668529,1144,266,mirror,dist,0,2,CR,dist1
2,detect-wolf,04/25/2023,wolf,586c89be73ee610001418542,NA,586c89be73ee610001418542_wolf,wolf,66,674380,1021,25,mirror,dist,0,2,CR,dist4
2,detect-wolf,04/25/2023,wolf,586c89be73ee610001418542,NA,586c89be73ee610001418542_wolf,wolf,67,680576,1433,237,mirror,dist,0,2,CR,dist5
2,detect-wolf,04/25/2023,wolf,586c89be73ee610001418542,NA,586c89be73ee610001418542_wolf,wolf,68,686662,1293,96,mirror,dist,0,1,CR,dist6
2,detect-wolf,04/25/2023,wolf,586c89be73ee610001418542,NA,586c89be73ee610001418542_wolf,wolf,69,694101,2608,267,mirror,sheep,0,2,CR,sheep
2,detect-wolf,04/25/2023,wolf,586c89be73ee610001418542,NA,586c89be73ee610001418542_wolf,wolf,70,701568,1893,275,chase,wolf,1,5,Hit,wolf
2,detect-wolf,04/25/2023,wolf,586c89be73ee610001418542,NA,586c89be73ee610001418542_wolf,wolf,71,707501,1093,261,chase,dist,0,2,Ms,dist5
2,detect-wolf,04/25/2023,wolf,586c89be73ee610001418542,NA,586c89be73ee610001418542_wolf,wolf,72,714925,1856,281,chase,wolf,1,5,Hit,wolf
2,detect-wolf,04/25/2023,wolf,586c89be73ee610001418542,NA,586c89be73ee610001418542_wolf,wolf,73,721357,1042,189,chase,wolf,1,5,Hit,wolf
2,detect-wolf,04/25/2023,wolf,586c89be73ee610001418542,NA,586c89be73ee610001418542_wolf,wolf,74,727664,944,258,chase,wolf,1,5,Hit,wolf
2,detect-wolf,04/25/2023,wolf,586c89be73ee610001418542,NA,586c89be73ee610001418542_wolf,wolf,75,756499,1245,182,chase,wolf,1,5,Hit,wolf
2,detect-wolf,04/25/2023,wolf,586c89be73ee610001418542,NA,586c89be73ee610001418542_wolf,wolf,76,763084,1364,136,chase,wolf,1,5,Hit,wolf
2,detect-wolf,04/25/2023,wolf,586c89be73ee610001418542,NA,586c89be73ee610001418542_wolf,wolf,77,769291,1360,279,mirror,dist,0,2,CR,dist2
2,detect-wolf,04/25/2023,wolf,586c89be73ee610001418542,NA,586c89be73ee610001418542_wolf,wolf,78,775628,1510,268,mirror,dist,0,1,CR,dist2
2,detect-wolf,04/25/2023,wolf,586c89be73ee610001418542,NA,586c89be73ee610001418542_wolf,wolf,79,781648,1072,214,chase,dist,0,3,Ms,dist1
2,detect-wolf,04/25/2023,wolf,586c89be73ee610001418542,NA,586c89be73ee610001418542_wolf,wolf,80,787898,1179,59,mirror,dist,0,2,CR,dist4
2,detect-wolf,04/25/2023,wolf,586c89be73ee610001418542,NA,586c89be73ee610001418542_wolf,wolf,81,795004,1958,153,chase,wolf,1,4,Hit,wolf
2,detect-wolf,04/25/2023,wolf,586c89be73ee610001418542,NA,586c89be73ee610001418542_wolf,wolf,82,800866,1009,197,chase,wolf,1,5,Hit,wolf
2,detect-wolf,04/25/2023,wolf,586c89be73ee610001418542,NA,586c89be73ee610001418542_wolf,wolf,83,807048,1289,56,chase,dist,0,3,Ms,dist6
2,detect-wolf,04/25/2023,wolf,586c89be73ee610001418542,NA,586c89be73ee610001418542_wolf,wolf,84,813061,1211,209,mirror,wolf,1,1,FA,wolf
2,detect-wolf,04/25/2023,wolf,586c89be73ee610001418542,NA,586c89be73ee610001418542_wolf,wolf,85,818871,928,269,chase,wolf,1,5,Hit,wolf
2,detect-wolf,04/25/2023,wolf,586c89be73ee610001418542,NA,586c89be73ee610001418542_wolf,wolf,86,824647,977,149,chase,wolf,1,5,Hit,wolf
2,detect-wolf,04/25/2023,wolf,586c89be73ee610001418542,NA,586c89be73ee610001418542_wolf,wolf,87,830527,1144,280,chase,wolf,1,5,Hit,wolf
2,detect-wolf,04/25/2023,wolf,586c89be73ee610001418542,NA,586c89be73ee610001418542_wolf,wolf,88,836777,1411,131,mirror,wolf,1,1,FA,wolf
2,detect-wolf,04/25/2023,wolf,586c89be73ee610001418542,NA,586c89be73ee610001418542_wolf,wolf,89,842822,1225,286,chase,wolf,1,5,Hit,wolf
2,detect-wolf,04/25/2023,wolf,586c89be73ee610001418542,NA,586c89be73ee610001418542_wolf,wolf,90,849250,1622,278,mirror,dist,0,2,CR,dist3
2,detect-wolf,04/25/2023,wolf,586c89be73ee610001418542,NA,586c89be73ee610001418542_wolf,wolf,91,855634,1526,282,chase,dist,0,1,Ms,dist2
2,detect-wolf,04/25/2023,wolf,586c89be73ee610001418542,NA,586c89be73ee610001418542_wolf,wolf,92,861452,994,285,chase,wolf,1,5,Hit,wolf
2,detect-wolf,04/25/2023,wolf,586c89be73ee610001418542,NA,586c89be73ee610001418542_wolf,wolf,93,867171,853,287,chase,wolf,1,5,Hit,wolf
2,detect-wolf,04/25/2023,wolf,586c89be73ee610001418542,NA,586c89be73ee610001418542_wolf,wolf,94,873381,1260,74,chase,wolf,1,5,Hit,wolf
2,detect-wolf,04/25/2023,wolf,586c89be73ee610001418542,NA,586c89be73ee610001418542_wolf,wolf,95,879685,1211,142,chase,wolf,1,3,Hit,wolf
2,detect-wolf,04/25/2023,wolf,586c89be73ee610001418542,NA,586c89be73ee610001418542_wolf,wolf,96,886498,2047,125,chase,wolf,1,2,Hit,wolf
2,detect-wolf,04/25/2023,wolf,586c89be73ee610001418542,NA,586c89be73ee610001418542_wolf,wolf,97,892393,1027,86,chase,wolf,1,5,Hit,wolf
2,detect-wolf,04/25/2023,wolf,586c89be73ee610001418542,NA,586c89be73ee610001418542_wolf,wolf,98,898290,1093,288,chase,wolf,1,5,Hit,wolf
2,detect-wolf,04/25/2023,wolf,586c89be73ee610001418542,NA,586c89be73ee610001418542_wolf,wolf,99,904310,1228,53,chase,wolf,1,5,Hit,wolf
2,detect-wolf,04/25/2023,wolf,586c89be73ee610001418542,NA,586c89be73ee610001418542_wolf,wolf,100,911746,2565,174,chase,wolf,1,5,Hit,wolf
2,detect-wolf,04/25/2023,wolf,58a43e029a17120001d910d5,NA,58a43e029a17120001d910d5_wolf,wolf,1,294196,1851.2,154,chase,wolf,1,3,Hit,wolf
2,detect-wolf,04/25/2023,wolf,58a43e029a17120001d910d5,NA,58a43e029a17120001d910d5_wolf,wolf,2,301744,1920.8,196,mirror,dist,0,2,CR,dist4
2,detect-wolf,04/25/2023,wolf,58a43e029a17120001d910d5,NA,58a43e029a17120001d910d5_wolf,wolf,3,310574,3093.1,177,mirror,dist,0,1,CR,dist6
2,detect-wolf,04/25/2023,wolf,58a43e029a17120001d910d5,NA,58a43e029a17120001d910d5_wolf,wolf,4,320387,2766.5,173,mirror,wolf,1,1,FA,wolf
2,detect-wolf,04/25/2023,wolf,58a43e029a17120001d910d5,NA,58a43e029a17120001d910d5_wolf,wolf,5,328461,1869.4,169,mirror,dist,0,4,CR,dist6
2,detect-wolf,04/25/2023,wolf,58a43e029a17120001d910d5,NA,58a43e029a17120001d910d5_wolf,wolf,6,336387,2100.7,2,mirror,dist,0,2,CR,dist1
2,detect-wolf,04/25/2023,wolf,58a43e029a17120001d910d5,NA,58a43e029a17120001d910d5_wolf,wolf,7,343663,1390.3,206,chase,wolf,1,5,Hit,wolf
2,detect-wolf,04/25/2023,wolf,58a43e029a17120001d910d5,NA,58a43e029a17120001d910d5_wolf,wolf,8,352285,2405.3,212,chase,dist,0,1,Ms,dist4
2,detect-wolf,04/25/2023,wolf,58a43e029a17120001d910d5,NA,58a43e029a17120001d910d5_wolf,wolf,9,360914,2419.7,82,mirror,wolf,1,2,FA,wolf
2,detect-wolf,04/25/2023,wolf,58a43e029a17120001d910d5,NA,58a43e029a17120001d910d5_wolf,wolf,10,369095,2547.9,202,mirror,dist,0,1,CR,dist5
2,detect-wolf,04/25/2023,wolf,58a43e029a17120001d910d5,NA,58a43e029a17120001d910d5_wolf,wolf,11,377073,2134.6,113,chase,wolf,1,5,Hit,wolf
2,detect-wolf,04/25/2023,wolf,58a43e029a17120001d910d5,NA,58a43e029a17120001d910d5_wolf,wolf,12,385909,3088.4,215,chase,wolf,1,3,Hit,wolf
2,detect-wolf,04/25/2023,wolf,58a43e029a17120001d910d5,NA,58a43e029a17120001d910d5_wolf,wolf,13,395437,2746.6,162,mirror,wolf,1,1,FA,wolf
2,detect-wolf,04/25/2023,wolf,58a43e029a17120001d910d5,NA,58a43e029a17120001d910d5_wolf,wolf,14,403616,2506.7,217,mirror,dist,0,1,CR,dist3
2,detect-wolf,04/25/2023,wolf,58a43e029a17120001d910d5,NA,58a43e029a17120001d910d5_wolf,wolf,15,411248,1826.8,78,mirror,dist,0,4,CR,dist5
2,detect-wolf,04/25/2023,wolf,58a43e029a17120001d910d5,NA,58a43e029a17120001d910d5_wolf,wolf,16,419397,2624.5,209,mirror,wolf,1,1,FA,wolf
2,detect-wolf,04/25/2023,wolf,58a43e029a17120001d910d5,NA,58a43e029a17120001d910d5_wolf,wolf,17,427438,2195.9,211,mirror,dist,0,4,CR,dist6
2,detect-wolf,04/25/2023,wolf,58a43e029a17120001d910d5,NA,58a43e029a17120001d910d5_wolf,wolf,18,435373,2385,166,chase,dist,0,1,Ms,dist3
2,detect-wolf,04/25/2023,wolf,58a43e029a17120001d910d5,NA,58a43e029a17120001d910d5_wolf,wolf,19,443116,1992.2,83,chase,wolf,1,5,Hit,wolf
2,detect-wolf,04/25/2023,wolf,58a43e029a17120001d910d5,NA,58a43e029a17120001d910d5_wolf,wolf,20,451225,2400.2,7,mirror,dist,0,3,CR,dist4
2,detect-wolf,04/25/2023,wolf,58a43e029a17120001d910d5,NA,58a43e029a17120001d910d5_wolf,wolf,21,459038,2340.7,26,mirror,dist,0,1,CR,dist5
2,detect-wolf,04/25/2023,wolf,58a43e029a17120001d910d5,NA,58a43e029a17120001d910d5_wolf,wolf,22,466566,1790.4,199,mirror,dist,0,1,CR,dist1
2,detect-wolf,04/25/2023,wolf,58a43e029a17120001d910d5,NA,58a43e029a17120001d910d5_wolf,wolf,23,474762,2518.1,193,chase,wolf,1,5,Hit,wolf
2,detect-wolf,04/25/2023,wolf,58a43e029a17120001d910d5,NA,58a43e029a17120001d910d5_wolf,wolf,24,482493,2319.8,91,mirror,dist,0,1,CR,dist2
2,detect-wolf,04/25/2023,wolf,58a43e029a17120001d910d5,NA,58a43e029a17120001d910d5_wolf,wolf,25,491701,2757.5,45,mirror,dist,0,1,CR,dist1
2,detect-wolf,04/25/2023,wolf,58a43e029a17120001d910d5,NA,58a43e029a17120001d910d5_wolf,wolf,26,501383,2630.4,208,mirror,dist,0,1,CR,dist1
2,detect-wolf,04/25/2023,wolf,58a43e029a17120001d910d5,NA,58a43e029a17120001d910d5_wolf,wolf,27,511440,3127.2,37,mirror,dist,0,1,CR,dist1
2,detect-wolf,04/25/2023,wolf,58a43e029a17120001d910d5,NA,58a43e029a17120001d910d5_wolf,wolf,28,519510,2277.8,223,mirror,dist,0,1,CR,dist6
2,detect-wolf,04/25/2023,wolf,58a43e029a17120001d910d5,NA,58a43e029a17120001d910d5_wolf,wolf,29,528967,3019.1,87,chase,sheep,0,3,Ms,sheep
2,detect-wolf,04/25/2023,wolf,58a43e029a17120001d910d5,NA,58a43e029a17120001d910d5_wolf,wolf,30,537670,2632.4,5,chase,wolf,1,5,Hit,wolf
2,detect-wolf,04/25/2023,wolf,58a43e029a17120001d910d5,NA,58a43e029a17120001d910d5_wolf,wolf,31,546507,2828.6,190,mirror,wolf,1,1,FA,wolf
2,detect-wolf,04/25/2023,wolf,58a43e029a17120001d910d5,NA,58a43e029a17120001d910d5_wolf,wolf,32,555470,2558.4,158,mirror,dist,0,2,CR,dist5
2,detect-wolf,04/25/2023,wolf,58a43e029a17120001d910d5,NA,58a43e029a17120001d910d5_wolf,wolf,33,565692,3822.4,84,chase,dist,0,1,Ms,dist4
2,detect-wolf,04/25/2023,wolf,58a43e029a17120001d910d5,NA,58a43e029a17120001d910d5_wolf,wolf,34,574048,2307.5,165,mirror,dist,0,4,CR,dist5
2,detect-wolf,04/25/2023,wolf,58a43e029a17120001d910d5,NA,58a43e029a17120001d910d5_wolf,wolf,35,582475,2619.1,167,chase,sheep,0,2,Ms,sheep
2,detect-wolf,04/25/2023,wolf,58a43e029a17120001d910d5,NA,58a43e029a17120001d910d5_wolf,wolf,36,591205,2533.8,225,mirror,wolf,1,1,FA,wolf
2,detect-wolf,04/25/2023,wolf,58a43e029a17120001d910d5,NA,58a43e029a17120001d910d5_wolf,wolf,37,600750,2477.2,96,mirror,dist,0,1,CR,dist6
2,detect-wolf,04/25/2023,wolf,58a43e029a17120001d910d5,NA,58a43e029a17120001d910d5_wolf,wolf,38,609046,2449,35,mirror,dist,0,2,CR,dist6
2,detect-wolf,04/25/2023,wolf,58a43e029a17120001d910d5,NA,58a43e029a17120001d910d5_wolf,wolf,39,617133,2221.7,175,chase,wolf,1,5,Hit,wolf
2,detect-wolf,04/25/2023,wolf,58a43e029a17120001d910d5,NA,58a43e029a17120001d910d5_wolf,wolf,40,624773,1985.2,275,chase,wolf,1,4,Hit,wolf
2,detect-wolf,04/25/2023,wolf,58a43e029a17120001d910d5,NA,58a43e029a17120001d910d5_wolf,wolf,41,637060,6024.8,256,mirror,dist,0,1,CR,dist6
2,detect-wolf,04/25/2023,wolf,58a43e029a17120001d910d5,NA,58a43e029a17120001d910d5_wolf,wolf,42,645892,2374.6,20,chase,dist,0,2,Ms,dist1
2,detect-wolf,04/25/2023,wolf,58a43e029a17120001d910d5,NA,58a43e029a17120001d910d5_wolf,wolf,43,654527,2255.9,29,mirror,dist,0,1,CR,dist5
2,detect-wolf,04/25/2023,wolf,58a43e029a17120001d910d5,NA,58a43e029a17120001d910d5_wolf,wolf,44,663501,2293.4,85,mirror,dist,0,1,CR,dist6
2,detect-wolf,04/25/2023,wolf,58a43e029a17120001d910d5,NA,58a43e029a17120001d910d5_wolf,wolf,45,671816,2520.5,236,mirror,dist,0,3,CR,dist4
2,detect-wolf,04/25/2023,wolf,58a43e029a17120001d910d5,NA,58a43e029a17120001d910d5_wolf,wolf,46,679889,2193,262,mirror,dist,0,3,CR,dist3
2,detect-wolf,04/25/2023,wolf,58a43e029a17120001d910d5,NA,58a43e029a17120001d910d5_wolf,wolf,47,689134,2756,276,mirror,dist,0,1,CR,dist3
2,detect-wolf,04/25/2023,wolf,58a43e029a17120001d910d5,NA,58a43e029a17120001d910d5_wolf,wolf,48,698400,3233.2,230,mirror,dist,0,1,CR,dist1
2,detect-wolf,04/25/2023,wolf,58a43e029a17120001d910d5,NA,58a43e029a17120001d910d5_wolf,wolf,49,707032,2542.4,98,chase,dist,0,2,Ms,dist5
2,detect-wolf,04/25/2023,wolf,58a43e029a17120001d910d5,NA,58a43e029a17120001d910d5_wolf,wolf,50,715610,2477.9,107,mirror,dist,0,1,CR,dist1
2,detect-wolf,04/25/2023,wolf,58a43e029a17120001d910d5,NA,58a43e029a17120001d910d5_wolf,wolf,51,722735,1122.9,172,chase,wolf,1,5,Hit,wolf
2,detect-wolf,04/25/2023,wolf,58a43e029a17120001d910d5,NA,58a43e029a17120001d910d5_wolf,wolf,52,730403,2196.8,295,chase,dist,0,1,Ms,dist6
2,detect-wolf,04/25/2023,wolf,58a43e029a17120001d910d5,NA,58a43e029a17120001d910d5_wolf,wolf,53,737881,1993.8,100,mirror,dist,0,1,CR,dist4
2,detect-wolf,04/25/2023,wolf,58a43e029a17120001d910d5,NA,58a43e029a17120001d910d5_wolf,wolf,54,746504,2526,80,mirror,dist,0,1,CR,dist2
2,detect-wolf,04/25/2023,wolf,58a43e029a17120001d910d5,NA,58a43e029a17120001d910d5_wolf,wolf,55,756368,2832.3,9,mirror,dist,0,2,CR,dist5
2,detect-wolf,04/25/2023,wolf,58a43e029a17120001d910d5,NA,58a43e029a17120001d910d5_wolf,wolf,56,763705,1752.1,30,chase,wolf,1,4,Hit,wolf
2,detect-wolf,04/25/2023,wolf,58a43e029a17120001d910d5,NA,58a43e029a17120001d910d5_wolf,wolf,57,772408,2807.4,259,mirror,dist,0,1,CR,dist5
2,detect-wolf,04/25/2023,wolf,58a43e029a17120001d910d5,NA,58a43e029a17120001d910d5_wolf,wolf,58,781097,2683.5,272,mirror,dist,0,1,CR,dist6
2,detect-wolf,04/25/2023,wolf,58a43e029a17120001d910d5,NA,58a43e029a17120001d910d5_wolf,wolf,59,788816,1857.7,280,chase,wolf,1,5,Hit,wolf
2,detect-wolf,04/25/2023,wolf,58a43e029a17120001d910d5,NA,58a43e029a17120001d910d5_wolf,wolf,60,797362,2673.5,191,mirror,dist,0,1,CR,dist2
2,detect-wolf,04/25/2023,wolf,58a43e029a17120001d910d5,NA,58a43e029a17120001d910d5_wolf,wolf,61,805262,2258.9,232,chase,wolf,1,4,Hit,wolf
2,detect-wolf,04/25/2023,wolf,58a43e029a17120001d910d5,NA,58a43e029a17120001d910d5_wolf,wolf,62,813650,2229.3,36,chase,wolf,1,2,Hit,wolf
2,detect-wolf,04/25/2023,wolf,58a43e029a17120001d910d5,NA,58a43e029a17120001d910d5_wolf,wolf,63,821671,2266.8,299,chase,wolf,1,4,Hit,wolf
2,detect-wolf,04/25/2023,wolf,58a43e029a17120001d910d5,NA,58a43e029a17120001d910d5_wolf,wolf,64,830111,2779.4,89,chase,wolf,1,1,Hit,wolf
2,detect-wolf,04/25/2023,wolf,58a43e029a17120001d910d5,NA,58a43e029a17120001d910d5_wolf,wolf,65,838533,2934.1,34,mirror,dist,0,1,CR,dist5
2,detect-wolf,04/25/2023,wolf,58a43e029a17120001d910d5,NA,58a43e029a17120001d910d5_wolf,wolf,66,847163,2509.8,18,mirror,dist,0,1,CR,dist4
2,detect-wolf,04/25/2023,wolf,58a43e029a17120001d910d5,NA,58a43e029a17120001d910d5_wolf,wolf,67,855970,2725.8,277,mirror,dist,0,1,CR,dist3
2,detect-wolf,04/25/2023,wolf,58a43e029a17120001d910d5,NA,58a43e029a17120001d910d5_wolf,wolf,68,863925,2067.2,32,mirror,sheep,0,3,CR,sheep
2,detect-wolf,04/25/2023,wolf,58a43e029a17120001d910d5,NA,58a43e029a17120001d910d5_wolf,wolf,69,872248,2473.6,226,mirror,dist,0,1,CR,dist2
2,detect-wolf,04/25/2023,wolf,58a43e029a17120001d910d5,NA,58a43e029a17120001d910d5_wolf,wolf,70,880693,2715.1,174,mirror,dist,0,1,CR,dist2
2,detect-wolf,04/25/2023,wolf,58a43e029a17120001d910d5,NA,58a43e029a17120001d910d5_wolf,wolf,71,888221,1763.3,86,chase,wolf,1,5,Hit,wolf
2,detect-wolf,04/25/2023,wolf,58a43e029a17120001d910d5,NA,58a43e029a17120001d910d5_wolf,wolf,72,896789,2050.2,109,chase,wolf,1,2,Hit,wolf
2,detect-wolf,04/25/2023,wolf,58a43e029a17120001d910d5,NA,58a43e029a17120001d910d5_wolf,wolf,73,904477,2104.1,241,chase,wolf,1,1,Hit,wolf
2,detect-wolf,04/25/2023,wolf,58a43e029a17120001d910d5,NA,58a43e029a17120001d910d5_wolf,wolf,74,912265,1901.3,90,mirror,dist,0,1,CR,dist1
2,detect-wolf,04/25/2023,wolf,58a43e029a17120001d910d5,NA,58a43e029a17120001d910d5_wolf,wolf,75,920114,2015.6,189,chase,wolf,1,2,Hit,wolf
2,detect-wolf,04/25/2023,wolf,58a43e029a17120001d910d5,NA,58a43e029a17120001d910d5_wolf,wolf,76,928556,2280.8,110,chase,dist,0,1,Ms,dist6
2,detect-wolf,04/25/2023,wolf,58a43e029a17120001d910d5,NA,58a43e029a17120001d910d5_wolf,wolf,77,935781,1395.4,258,chase,wolf,1,5,Hit,wolf
2,detect-wolf,04/25/2023,wolf,58a43e029a17120001d910d5,NA,58a43e029a17120001d910d5_wolf,wolf,78,944152,2457.6,115,mirror,wolf,1,1,FA,wolf
2,detect-wolf,04/25/2023,wolf,58a43e029a17120001d910d5,NA,58a43e029a17120001d910d5_wolf,wolf,79,952879,2743.9,108,chase,sheep,0,1,Ms,sheep
2,detect-wolf,04/25/2023,wolf,58a43e029a17120001d910d5,NA,58a43e029a17120001d910d5_wolf,wolf,80,961696,2734,88,mirror,dist,0,1,CR,dist3
2,detect-wolf,04/25/2023,wolf,58a43e029a17120001d910d5,NA,58a43e029a17120001d910d5_wolf,wolf,81,970248,2625.2,155,chase,sheep,0,1,Ms,sheep
2,detect-wolf,04/25/2023,wolf,58a43e029a17120001d910d5,NA,58a43e029a17120001d910d5_wolf,wolf,82,978495,2292.4,265,chase,sheep,0,1,Ms,sheep
2,detect-wolf,04/25/2023,wolf,58a43e029a17120001d910d5,NA,58a43e029a17120001d910d5_wolf,wolf,83,985746,1452.3,92,chase,wolf,1,4,Hit,wolf
2,detect-wolf,04/25/2023,wolf,58a43e029a17120001d910d5,NA,58a43e029a17120001d910d5_wolf,wolf,84,993691,2007.6,267,chase,wolf,1,4,Hit,wolf
2,detect-wolf,04/25/2023,wolf,58a43e029a17120001d910d5,NA,58a43e029a17120001d910d5_wolf,wolf,85,1000923,1342.6,95,chase,wolf,1,5,Hit,wolf
2,detect-wolf,04/25/2023,wolf,58a43e029a17120001d910d5,NA,58a43e029a17120001d910d5_wolf,wolf,86,1008864,1523.4,179,chase,wolf,1,5,Hit,wolf
2,detect-wolf,04/25/2023,wolf,58a43e029a17120001d910d5,NA,58a43e029a17120001d910d5_wolf,wolf,87,1017129,2233.7,106,chase,dist,0,2,Ms,dist4
2,detect-wolf,04/25/2023,wolf,58a43e029a17120001d910d5,NA,58a43e029a17120001d910d5_wolf,wolf,88,1025175,2254.7,247,chase,wolf,1,3,Hit,wolf
2,detect-wolf,04/25/2023,wolf,58a43e029a17120001d910d5,NA,58a43e029a17120001d910d5_wolf,wolf,89,1032439,1464.6,296,chase,wolf,1,3,Hit,wolf
2,detect-wolf,04/25/2023,wolf,58a43e029a17120001d910d5,NA,58a43e029a17120001d910d5_wolf,wolf,90,1040522,2025.3,97,chase,wolf,1,5,Hit,wolf
2,detect-wolf,04/25/2023,wolf,58a43e029a17120001d910d5,NA,58a43e029a17120001d910d5_wolf,wolf,91,1047739,1507.4,293,chase,wolf,1,4,Hit,wolf
2,detect-wolf,04/25/2023,wolf,58a43e029a17120001d910d5,NA,58a43e029a17120001d910d5_wolf,wolf,92,1054907,1343.9,105,chase,wolf,1,3,Hit,wolf
2,detect-wolf,04/25/2023,wolf,58a43e029a17120001d910d5,NA,58a43e029a17120001d910d5_wolf,wolf,93,1062557,1597.9,271,chase,wolf,1,3,Hit,wolf
2,detect-wolf,04/25/2023,wolf,58a43e029a17120001d910d5,NA,58a43e029a17120001d910d5_wolf,wolf,94,1070690,2643.2,294,chase,wolf,1,1,Hit,wolf
2,detect-wolf,04/25/2023,wolf,58a43e029a17120001d910d5,NA,58a43e029a17120001d910d5_wolf,wolf,95,1079348,2792.1,112,chase,wolf,1,5,Hit,wolf
2,detect-wolf,04/25/2023,wolf,58a43e029a17120001d910d5,NA,58a43e029a17120001d910d5_wolf,wolf,96,1086811,1743.8,204,chase,wolf,1,5,Hit,wolf
2,detect-wolf,04/25/2023,wolf,58a43e029a17120001d910d5,NA,58a43e029a17120001d910d5_wolf,wolf,97,1094975,2678.7,81,chase,wolf,1,2,Hit,wolf
2,detect-wolf,04/25/2023,wolf,58a43e029a17120001d910d5,NA,58a43e029a17120001d910d5_wolf,wolf,98,1102495,1687.3,249,chase,dist,0,4,Ms,dist3
2,detect-wolf,04/25/2023,wolf,58a43e029a17120001d910d5,NA,58a43e029a17120001d910d5_wolf,wolf,99,1110112,1903.5,234,chase,dist,0,2,Ms,dist6
2,detect-wolf,04/25/2023,wolf,58a43e029a17120001d910d5,NA,58a43e029a17120001d910d5_wolf,wolf,100,1117473,1733.3,114,mirror,dist,0,1,CR,dist4
2,detect-wolf,04/25/2023,wolf,594936ad4152bf0001bfd5cd,NA,594936ad4152bf0001bfd5cd_wolf,wolf,1,223011,902,292,chase,wolf,1,4,Hit,wolf
2,detect-wolf,04/25/2023,wolf,594936ad4152bf0001bfd5cd,NA,594936ad4152bf0001bfd5cd_wolf,wolf,2,229715,1072,274,chase,dist,0,2,Ms,dist1
2,detect-wolf,04/25/2023,wolf,594936ad4152bf0001bfd5cd,NA,594936ad4152bf0001bfd5cd_wolf,wolf,3,236835,713,282,chase,dist,0,3,Ms,dist2
2,detect-wolf,04/25/2023,wolf,594936ad4152bf0001bfd5cd,NA,594936ad4152bf0001bfd5cd_wolf,wolf,4,242656,627,280,chase,wolf,1,4,Hit,wolf
2,detect-wolf,04/25/2023,wolf,594936ad4152bf0001bfd5cd,NA,594936ad4152bf0001bfd5cd_wolf,wolf,5,248783,684,180,chase,dist,0,3,Ms,dist3
2,detect-wolf,04/25/2023,wolf,594936ad4152bf0001bfd5cd,NA,594936ad4152bf0001bfd5cd_wolf,wolf,6,255474,920,188,chase,wolf,1,2,Hit,wolf
2,detect-wolf,04/25/2023,wolf,594936ad4152bf0001bfd5cd,NA,594936ad4152bf0001bfd5cd_wolf,wolf,7,261858,794,293,chase,wolf,1,2,Hit,wolf
2,detect-wolf,04/25/2023,wolf,594936ad4152bf0001bfd5cd,NA,594936ad4152bf0001bfd5cd_wolf,wolf,8,268021,684,168,chase,wolf,1,3,Hit,wolf
2,detect-wolf,04/25/2023,wolf,594936ad4152bf0001bfd5cd,NA,594936ad4152bf0001bfd5cd_wolf,wolf,9,273994,714,166,chase,wolf,1,3,Hit,wolf
2,detect-wolf,04/25/2023,wolf,594936ad4152bf0001bfd5cd,NA,594936ad4152bf0001bfd5cd_wolf,wolf,10,280328,650,181,chase,wolf,1,5,Hit,wolf
2,detect-wolf,04/25/2023,wolf,594936ad4152bf0001bfd5cd,NA,594936ad4152bf0001bfd5cd_wolf,wolf,11,287086,1332,53,chase,wolf,1,2,Hit,wolf
2,detect-wolf,04/25/2023,wolf,594936ad4152bf0001bfd5cd,NA,594936ad4152bf0001bfd5cd_wolf,wolf,12,293309,965,288,chase,wolf,1,4,Hit,wolf
2,detect-wolf,04/25/2023,wolf,594936ad4152bf0001bfd5cd,NA,594936ad4152bf0001bfd5cd_wolf,wolf,13,299253,620,72,chase,wolf,1,4,Hit,wolf
2,detect-wolf,04/25/2023,wolf,594936ad4152bf0001bfd5cd,NA,594936ad4152bf0001bfd5cd_wolf,wolf,14,305201,667,240,chase,wolf,1,4,Hit,wolf
2,detect-wolf,04/25/2023,wolf,594936ad4152bf0001bfd5cd,NA,594936ad4152bf0001bfd5cd_wolf,wolf,15,311330,710,262,chase,wolf,1,2,Hit,wolf
2,detect-wolf,04/25/2023,wolf,594936ad4152bf0001bfd5cd,NA,594936ad4152bf0001bfd5cd_wolf,wolf,16,319525,2446,77,chase,dist,0,2,Ms,dist1
2,detect-wolf,04/25/2023,wolf,594936ad4152bf0001bfd5cd,NA,594936ad4152bf0001bfd5cd_wolf,wolf,17,326348,718,42,chase,wolf,1,4,Hit,wolf
2,detect-wolf,04/25/2023,wolf,594936ad4152bf0001bfd5cd,NA,594936ad4152bf0001bfd5cd_wolf,wolf,18,332342,780,68,chase,dist,0,3,Ms,dist2
2,detect-wolf,04/25/2023,wolf,594936ad4152bf0001bfd5cd,NA,594936ad4152bf0001bfd5cd_wolf,wolf,19,340736,2072,66,chase,sheep,0,2,Ms,sheep
2,detect-wolf,04/25/2023,wolf,594936ad4152bf0001bfd5cd,NA,594936ad4152bf0001bfd5cd_wolf,wolf,20,349086,2027,254,chase,dist,0,1,Ms,dist3
2,detect-wolf,04/25/2023,wolf,594936ad4152bf0001bfd5cd,NA,594936ad4152bf0001bfd5cd_wolf,wolf,21,355334,632,245,chase,wolf,1,3,Hit,wolf
2,detect-wolf,04/25/2023,wolf,594936ad4152bf0001bfd5cd,NA,594936ad4152bf0001bfd5cd_wolf,wolf,22,361241,1073,34,chase,wolf,1,2,Hit,wolf
2,detect-wolf,04/25/2023,wolf,594936ad4152bf0001bfd5cd,NA,594936ad4152bf0001bfd5cd_wolf,wolf,23,369392,2910,2,chase,sheep,0,1,Ms,sheep
2,detect-wolf,04/25/2023,wolf,594936ad4152bf0001bfd5cd,NA,594936ad4152bf0001bfd5cd_wolf,wolf,24,376085,968,174,chase,dist,0,3,Ms,dist6
2,detect-wolf,04/25/2023,wolf,594936ad4152bf0001bfd5cd,NA,594936ad4152bf0001bfd5cd_wolf,wolf,25,383143,972,154,chase,wolf,1,4,Hit,wolf
2,detect-wolf,04/25/2023,wolf,594936ad4152bf0001bfd5cd,NA,594936ad4152bf0001bfd5cd_wolf,wolf,26,389348,888,60,chase,wolf,1,3,Hit,wolf
2,detect-wolf,04/25/2023,wolf,594936ad4152bf0001bfd5cd,NA,594936ad4152bf0001bfd5cd_wolf,wolf,27,395224,637,3,chase,wolf,1,3,Hit,wolf
2,detect-wolf,04/25/2023,wolf,594936ad4152bf0001bfd5cd,NA,594936ad4152bf0001bfd5cd_wolf,wolf,28,401232,616,255,chase,dist,0,3,Ms,dist4
2,detect-wolf,04/25/2023,wolf,594936ad4152bf0001bfd5cd,NA,594936ad4152bf0001bfd5cd_wolf,wolf,29,407875,864,10,chase,wolf,1,4,Hit,wolf
2,detect-wolf,04/25/2023,wolf,594936ad4152bf0001bfd5cd,NA,594936ad4152bf0001bfd5cd_wolf,wolf,30,414095,583,4,chase,wolf,1,4,Hit,wolf
