"experiment","version","interview_date","task","PROLIFIC_PID","workerId","identifier","first","trial_num","time_elapsed","reaction_time","trial_id","condition","choice","correct","confidence","cells","selected"
3,"detect-sheep","06/03/2023","sheep","559e664dfdf99b4f28173b05",NA,"559e664dfdf99b4f28173b05_sheep","sheep",1,547048,2184,294,"chase","sheep",1,3,"Hit","sheep"
3,"detect-sheep","06/03/2023","sheep","559e664dfdf99b4f28173b05",NA,"559e664dfdf99b4f28173b05_sheep","sheep",2,555836,2912,296,"chase","sheep",1,4,"Hit","sheep"
3,"detect-sheep","06/03/2023","sheep","559e664dfdf99b4f28173b05",NA,"559e664dfdf99b4f28173b05_sheep","sheep",3,599068,2834,295,"chase","sheep",1,4,"Hit","sheep"
3,"detect-sheep","06/03/2023","sheep","559e664dfdf99b4f28173b05",NA,"559e664dfdf99b4f28173b05_sheep","sheep",4,606153,1288,266,"chase","sheep",1,5,"Hit","sheep"
3,"detect-sheep","06/03/2023","sheep","559e664dfdf99b4f28173b05",NA,"559e664dfdf99b4f28173b05_sheep","sheep",5,634643,1774,281,"chase","sheep",1,5,"Hit","sheep"
3,"detect-sheep","06/03/2023","sheep","559e664dfdf99b4f28173b05",NA,"559e664dfdf99b4f28173b05_sheep","sheep",6,641873,1300,279,"chase","dist",0,2,"Ms","dist5"
3,"detect-sheep","06/03/2023","sheep","559e664dfdf99b4f28173b05",NA,"559e664dfdf99b4f28173b05_sheep","sheep",7,650049,2426,297,"chase","dist",0,1,"Ms","dist2"
3,"detect-sheep","06/03/2023","sheep","559e664dfdf99b4f28173b05",NA,"559e664dfdf99b4f28173b05_sheep","sheep",8,674038,2986,90,"chase","sheep",1,1,"Hit","sheep"
3,"detect-sheep","06/03/2023","sheep","559e664dfdf99b4f28173b05",NA,"559e664dfdf99b4f28173b05_sheep","sheep",9,707926,1003,68,"chase","dist",0,3,"Ms","dist4"
3,"detect-sheep","06/03/2023","sheep","559e664dfdf99b4f28173b05",NA,"559e664dfdf99b4f28173b05_sheep","sheep",10,714883,1333,298,"chase","sheep",1,5,"Hit","sheep"
3,"detect-sheep","06/03/2023","sheep","559e664dfdf99b4f28173b05",NA,"559e664dfdf99b4f28173b05_sheep","sheep",11,788722,1266,299,"chase","sheep",1,3,"Hit","sheep"
3,"detect-sheep","06/03/2023","sheep","559e664dfdf99b4f28173b05",NA,"559e664dfdf99b4f28173b05_sheep","sheep",12,795601,1024,280,"chase","sheep",1,5,"Hit","sheep"
3,"detect-sheep","06/03/2023","sheep","559e664dfdf99b4f28173b05",NA,"559e664dfdf99b4f28173b05_sheep","sheep",13,847611,1034,300,"chase","sheep",1,2,"Hit","sheep"
3,"detect-sheep","06/03/2023","sheep","559e664dfdf99b4f28173b05",NA,"559e664dfdf99b4f28173b05_sheep","sheep",14,864909,1240,270,"chase","dist",0,1,"Ms","dist4"
3,"detect-sheep","06/03/2023","sheep","559e664dfdf99b4f28173b05",NA,"559e664dfdf99b4f28173b05_sheep","sheep",15,895712,943,267,"chase","sheep",1,4,"Hit","sheep"
3,"detect-sheep","06/03/2023","sheep","559e664dfdf99b4f28173b05",NA,"559e664dfdf99b4f28173b05_sheep","sheep",16,903362,1274,274,"chase","sheep",1,2,"Hit","sheep"
3,"detect-sheep","06/03/2023","sheep","559e664dfdf99b4f28173b05",NA,"559e664dfdf99b4f28173b05_sheep","sheep",17,935384,1216,163,"chase","sheep",1,2,"Hit","sheep"
3,"detect-sheep","06/03/2023","sheep","559e664dfdf99b4f28173b05",NA,"559e664dfdf99b4f28173b05_sheep","sheep",18,992866,1250,6,"chase","sheep",1,3,"Hit","sheep"
3,"detect-sheep","06/03/2023","sheep","559e664dfdf99b4f28173b05",NA,"559e664dfdf99b4f28173b05_sheep","sheep",19,1026630,1915,272,"chase","dist",0,1,"Ms","dist1"
3,"detect-sheep","06/03/2023","sheep","559e664dfdf99b4f28173b05",NA,"559e664dfdf99b4f28173b05_sheep","sheep",20,1037957,5214,166,"chase","dist",0,1,"Ms","dist1"
3,"detect-sheep","06/03/2023","sheep","559e664dfdf99b4f28173b05",NA,"559e664dfdf99b4f28173b05_sheep","sheep",21,1044886,1144,154,"chase","sheep",1,4,"Hit","sheep"
3,"detect-sheep","06/03/2023","sheep","559e664dfdf99b4f28173b05",NA,"559e664dfdf99b4f28173b05_sheep","sheep",22,1075550,897,259,"chase","sheep",1,5,"Hit","sheep"
3,"detect-sheep","06/03/2023","sheep","559e664dfdf99b4f28173b05",NA,"559e664dfdf99b4f28173b05_sheep","sheep",23,1085734,1138,20,"chase","sheep",1,4,"Hit","sheep"
3,"detect-sheep","06/03/2023","sheep","559e664dfdf99b4f28173b05",NA,"559e664dfdf99b4f28173b05_sheep","sheep",24,1096084,2869,84,"chase","sheep",1,5,"Hit","sheep"
3,"detect-sheep","06/03/2023","sheep","559e664dfdf99b4f28173b05",NA,"559e664dfdf99b4f28173b05_sheep","sheep",25,1104017,1730,269,"chase","sheep",1,2,"Hit","sheep"
3,"detect-sheep","06/03/2023","sheep","559e664dfdf99b4f28173b05",NA,"559e664dfdf99b4f28173b05_sheep","sheep",26,1150747,867,172,"chase","sheep",1,3,"Hit","sheep"
3,"detect-sheep","06/03/2023","sheep","559e664dfdf99b4f28173b05",NA,"559e664dfdf99b4f28173b05_sheep","sheep",27,1159197,2221,278,"chase","sheep",1,1,"Hit","sheep"
3,"detect-sheep","06/03/2023","sheep","559e664dfdf99b4f28173b05",NA,"559e664dfdf99b4f28173b05_sheep","sheep",28,1168262,2802,176,"chase","wolf",0,1,"Ms","wolf"
3,"detect-sheep","06/03/2023","sheep","559e664dfdf99b4f28173b05",NA,"559e664dfdf99b4f28173b05_sheep","sheep",29,1176224,1423,261,"chase","wolf",0,4,"Ms","wolf"
3,"detect-sheep","06/03/2023","sheep","559e664dfdf99b4f28173b05",NA,"559e664dfdf99b4f28173b05_sheep","sheep",30,1188253,1870,8,"chase","sheep",1,5,"Hit","sheep"
3,"detect-sheep","06/03/2023","sheep","559e664dfdf99b4f28173b05",NA,"559e664dfdf99b4f28173b05_sheep","sheep",31,1200591,2283,164,"chase","sheep",1,1,"Hit","sheep"
3,"detect-sheep","06/03/2023","sheep","559e664dfdf99b4f28173b05",NA,"559e664dfdf99b4f28173b05_sheep","sheep",32,1208546,2213,260,"chase","sheep",1,1,"Hit","sheep"
3,"detect-sheep","06/03/2023","sheep","559e664dfdf99b4f28173b05",NA,"559e664dfdf99b4f28173b05_sheep","sheep",33,1254598,1012,275,"chase","sheep",1,4,"Hit","sheep"
3,"detect-sheep","06/03/2023","sheep","559e664dfdf99b4f28173b05",NA,"559e664dfdf99b4f28173b05_sheep","sheep",34,1261934,1591,158,"chase","sheep",1,5,"Hit","sheep"
3,"detect-sheep","06/03/2023","sheep","559e664dfdf99b4f28173b05",NA,"559e664dfdf99b4f28173b05_sheep","sheep",35,1270524,2641,165,"chase","sheep",1,2,"Hit","sheep"
3,"detect-sheep","06/03/2023","sheep","559e664dfdf99b4f28173b05",NA,"559e664dfdf99b4f28173b05_sheep","sheep",36,1403378,969,175,"chase","sheep",1,2,"Hit","sheep"
3,"detect-sheep","06/03/2023","sheep","559e664dfdf99b4f28173b05",NA,"559e664dfdf99b4f28173b05_sheep","sheep",37,1410709,1916,147,"chase","sheep",1,1,"Hit","sheep"
3,"detect-sheep","06/03/2023","sheep","559e664dfdf99b4f28173b05",NA,"559e664dfdf99b4f28173b05_sheep","sheep",38,1460377,2502,130,"chase","sheep",1,4,"Hit","sheep"
3,"detect-sheep","06/03/2023","sheep","559e664dfdf99b4f28173b05",NA,"559e664dfdf99b4f28173b05_sheep","sheep",39,1467857,1735,96,"chase","sheep",1,1,"Hit","sheep"
3,"detect-sheep","06/03/2023","sheep","559e664dfdf99b4f28173b05",NA,"559e664dfdf99b4f28173b05_sheep","sheep",40,1475518,1607,177,"chase","sheep",1,2,"Hit","sheep"
3,"detect-sheep","06/03/2023","sheep","559e664dfdf99b4f28173b05",NA,"559e664dfdf99b4f28173b05_sheep","sheep",41,1483148,1847,75,"chase","dist",0,1,"Ms","dist1"
3,"detect-sheep","06/03/2023","sheep","559e664dfdf99b4f28173b05",NA,"559e664dfdf99b4f28173b05_sheep","sheep",42,1492437,3785,162,"chase","dist",0,1,"Ms","dist5"
3,"detect-sheep","06/03/2023","sheep","559e664dfdf99b4f28173b05",NA,"559e664dfdf99b4f28173b05_sheep","sheep",43,1500271,1540,262,"chase","dist",0,1,"Ms","dist1"
3,"detect-sheep","06/03/2023","sheep","559e664dfdf99b4f28173b05",NA,"559e664dfdf99b4f28173b05_sheep","sheep",44,1507711,1503,264,"chase","sheep",1,4,"Hit","sheep"
3,"detect-sheep","06/03/2023","sheep","559e664dfdf99b4f28173b05",NA,"559e664dfdf99b4f28173b05_sheep","sheep",45,1532126,1466,263,"chase","sheep",1,3,"Hit","sheep"
3,"detect-sheep","06/03/2023","sheep","559e664dfdf99b4f28173b05",NA,"559e664dfdf99b4f28173b05_sheep","sheep",46,1539784,1902,159,"chase","sheep",1,1,"Hit","sheep"
3,"detect-sheep","06/03/2023","sheep","559e664dfdf99b4f28173b05",NA,"559e664dfdf99b4f28173b05_sheep","sheep",47,1547893,2778,265,"chase","dist",0,1,"Ms","dist2"
3,"detect-sheep","06/03/2023","sheep","559e664dfdf99b4f28173b05",NA,"559e664dfdf99b4f28173b05_sheep","sheep",48,1555397,1902,174,"chase","sheep",1,4,"Hit","sheep"
3,"detect-sheep","06/03/2023","sheep","559e664dfdf99b4f28173b05",NA,"559e664dfdf99b4f28173b05_sheep","sheep",49,1565630,4489,131,"mirror","dist",0,1,"CR","dist5"
3,"detect-sheep","06/03/2023","sheep","559e664dfdf99b4f28173b05",NA,"559e664dfdf99b4f28173b05_sheep","sheep",50,1573169,2025,276,"chase","sheep",1,3,"Hit","sheep"
3,"detect-sheep","06/03/2023","sheep","559e664dfdf99b4f28173b05",NA,"559e664dfdf99b4f28173b05_sheep","sheep",51,1609852,30404,268,"chase","sheep",1,1,"Hit","sheep"
3,"detect-sheep","06/03/2023","sheep","559e664dfdf99b4f28173b05",NA,"559e664dfdf99b4f28173b05_sheep","sheep",52,1619381,1406,273,"mirror","wolf",0,5,"CR","wolf"
3,"detect-sheep","06/03/2023","sheep","559e664dfdf99b4f28173b05",NA,"559e664dfdf99b4f28173b05_sheep","sheep",53,1626996,1990,277,"mirror","sheep",1,1,"FA","sheep"
3,"detect-sheep","06/03/2023","sheep","559e664dfdf99b4f28173b05",NA,"559e664dfdf99b4f28173b05_sheep","sheep",54,1635179,2054,287,"mirror","dist",0,1,"CR","dist6"
3,"detect-sheep","06/03/2023","sheep","559e664dfdf99b4f28173b05",NA,"559e664dfdf99b4f28173b05_sheep","sheep",55,1642048,1601,289,"mirror","dist",0,1,"CR","dist6"
3,"detect-sheep","06/03/2023","sheep","559e664dfdf99b4f28173b05",NA,"559e664dfdf99b4f28173b05_sheep","sheep",56,1649738,2279,171,"mirror","dist",0,3,"CR","dist6"
3,"detect-sheep","06/03/2023","sheep","559e664dfdf99b4f28173b05",NA,"559e664dfdf99b4f28173b05_sheep","sheep",57,1657398,2349,170,"mirror","dist",0,1,"CR","dist3"
3,"detect-sheep","06/03/2023","sheep","559e664dfdf99b4f28173b05",NA,"559e664dfdf99b4f28173b05_sheep","sheep",58,1665977,3304,288,"mirror","dist",0,1,"CR","dist3"
3,"detect-sheep","06/03/2023","sheep","559e664dfdf99b4f28173b05",NA,"559e664dfdf99b4f28173b05_sheep","sheep",59,1673299,1693,286,"mirror","sheep",1,4,"FA","sheep"
3,"detect-sheep","06/03/2023","sheep","559e664dfdf99b4f28173b05",NA,"559e664dfdf99b4f28173b05_sheep","sheep",60,1680836,1259,11,"mirror","dist",0,3,"CR","dist1"
3,"detect-sheep","06/03/2023","sheep","559e664dfdf99b4f28173b05",NA,"559e664dfdf99b4f28173b05_sheep","sheep",61,1691213,4858,149,"mirror","dist",0,1,"CR","dist6"
3,"detect-sheep","06/03/2023","sheep","559e664dfdf99b4f28173b05",NA,"559e664dfdf99b4f28173b05_sheep","sheep",62,1698356,1515,83,"mirror","sheep",1,3,"FA","sheep"
3,"detect-sheep","06/03/2023","sheep","559e664dfdf99b4f28173b05",NA,"559e664dfdf99b4f28173b05_sheep","sheep",63,1746776,5643,283,"mirror","dist",0,2,"CR","dist4"
3,"detect-sheep","06/03/2023","sheep","559e664dfdf99b4f28173b05",NA,"559e664dfdf99b4f28173b05_sheep","sheep",64,1756293,3892,282,"mirror","dist",0,1,"CR","dist3"
3,"detect-sheep","06/03/2023","sheep","559e664dfdf99b4f28173b05",NA,"559e664dfdf99b4f28173b05_sheep","sheep",65,1763702,1971,132,"mirror","sheep",1,1,"FA","sheep"
3,"detect-sheep","06/03/2023","sheep","559e664dfdf99b4f28173b05",NA,"559e664dfdf99b4f28173b05_sheep","sheep",66,1813899,2275,284,"mirror","wolf",0,2,"CR","wolf"
3,"detect-sheep","06/03/2023","sheep","559e664dfdf99b4f28173b05",NA,"559e664dfdf99b4f28173b05_sheep","sheep",67,1820657,1577,285,"mirror","dist",0,1,"CR","dist4"
3,"detect-sheep","06/03/2023","sheep","559e664dfdf99b4f28173b05",NA,"559e664dfdf99b4f28173b05_sheep","sheep",68,1828718,2672,173,"mirror","dist",0,2,"CR","dist6"
3,"detect-sheep","06/03/2023","sheep","559e664dfdf99b4f28173b05",NA,"559e664dfdf99b4f28173b05_sheep","sheep",69,1837474,3287,3,"mirror","dist",0,1,"CR","dist6"
3,"detect-sheep","06/03/2023","sheep","559e664dfdf99b4f28173b05",NA,"559e664dfdf99b4f28173b05_sheep","sheep",70,1846591,3551,21,"mirror","dist",0,1,"CR","dist2"
3,"detect-sheep","06/03/2023","sheep","559e664dfdf99b4f28173b05",NA,"559e664dfdf99b4f28173b05_sheep","sheep",71,1855930,2358,94,"mirror","wolf",0,4,"CR","wolf"
3,"detect-sheep","06/03/2023","sheep","559e664dfdf99b4f28173b05",NA,"559e664dfdf99b4f28173b05_sheep","sheep",72,1868537,6853,155,"mirror","dist",0,1,"CR","dist6"
3,"detect-sheep","06/03/2023","sheep","559e664dfdf99b4f28173b05",NA,"559e664dfdf99b4f28173b05_sheep","sheep",73,1875684,1653,74,"mirror","dist",0,1,"CR","dist3"
3,"detect-sheep","06/03/2023","sheep","559e664dfdf99b4f28173b05",NA,"559e664dfdf99b4f28173b05_sheep","sheep",74,1885269,2166,10,"mirror","dist",0,1,"CR","dist5"
3,"detect-sheep","06/03/2023","sheep","559e664dfdf99b4f28173b05",NA,"559e664dfdf99b4f28173b05_sheep","sheep",75,1893052,1287,82,"mirror","dist",0,5,"CR","dist2"
3,"detect-sheep","06/03/2023","sheep","559e664dfdf99b4f28173b05",NA,"559e664dfdf99b4f28173b05_sheep","sheep",76,1899877,1651,85,"mirror","dist",0,1,"CR","dist6"
3,"detect-sheep","06/03/2023","sheep","559e664dfdf99b4f28173b05",NA,"559e664dfdf99b4f28173b05_sheep","sheep",77,1906830,1711,178,"mirror","dist",0,1,"CR","dist6"
3,"detect-sheep","06/03/2023","sheep","559e664dfdf99b4f28173b05",NA,"559e664dfdf99b4f28173b05_sheep","sheep",78,1913574,1434,2,"mirror","dist",0,4,"CR","dist6"
3,"detect-sheep","06/03/2023","sheep","559e664dfdf99b4f28173b05",NA,"559e664dfdf99b4f28173b05_sheep","sheep",79,2016626,1661,186,"mirror","dist",0,2,"CR","dist6"
3,"detect-sheep","06/03/2023","sheep","559e664dfdf99b4f28173b05",NA,"559e664dfdf99b4f28173b05_sheep","sheep",80,2025240,956,18,"mirror","dist",0,5,"CR","dist5"
3,"detect-sheep","06/03/2023","sheep","559e664dfdf99b4f28173b05",NA,"559e664dfdf99b4f28173b05_sheep","sheep",81,2033405,2615,187,"mirror","dist",0,2,"CR","dist2"
3,"detect-sheep","06/03/2023","sheep","559e664dfdf99b4f28173b05",NA,"559e664dfdf99b4f28173b05_sheep","sheep",82,2040399,1868,133,"mirror","dist",0,1,"CR","dist3"
3,"detect-sheep","06/03/2023","sheep","559e664dfdf99b4f28173b05",NA,"559e664dfdf99b4f28173b05_sheep","sheep",83,2048736,3140,9,"mirror","dist",0,1,"CR","dist5"
3,"detect-sheep","06/03/2023","sheep","559e664dfdf99b4f28173b05",NA,"559e664dfdf99b4f28173b05_sheep","sheep",84,2056096,1640,135,"mirror","sheep",1,4,"FA","sheep"
3,"detect-sheep","06/03/2023","sheep","559e664dfdf99b4f28173b05",NA,"559e664dfdf99b4f28173b05_sheep","sheep",85,2063152,1767,156,"mirror","dist",0,1,"CR","dist1"
3,"detect-sheep","06/03/2023","sheep","559e664dfdf99b4f28173b05",NA,"559e664dfdf99b4f28173b05_sheep","sheep",86,2075537,5376,12,"mirror","sheep",1,1,"FA","sheep"
3,"detect-sheep","06/03/2023","sheep","559e664dfdf99b4f28173b05",NA,"559e664dfdf99b4f28173b05_sheep","sheep",87,2083038,1350,179,"mirror","sheep",1,2,"FA","sheep"
3,"detect-sheep","06/03/2023","sheep","559e664dfdf99b4f28173b05",NA,"559e664dfdf99b4f28173b05_sheep","sheep",88,2090645,1926,180,"mirror","dist",0,1,"CR","dist3"
3,"detect-sheep","06/03/2023","sheep","559e664dfdf99b4f28173b05",NA,"559e664dfdf99b4f28173b05_sheep","sheep",89,2097754,1721,160,"mirror","dist",0,4,"CR","dist6"
3,"detect-sheep","06/03/2023","sheep","559e664dfdf99b4f28173b05",NA,"559e664dfdf99b4f28173b05_sheep","sheep",90,2105211,2120,91,"mirror","dist",0,1,"CR","dist2"
3,"detect-sheep","06/03/2023","sheep","559e664dfdf99b4f28173b05",NA,"559e664dfdf99b4f28173b05_sheep","sheep",91,2112936,2502,134,"mirror","dist",0,2,"CR","dist3"
3,"detect-sheep","06/03/2023","sheep","559e664dfdf99b4f28173b05",NA,"559e664dfdf99b4f28173b05_sheep","sheep",92,2120784,2419,136,"mirror","dist",0,1,"CR","dist4"
3,"detect-sheep","06/03/2023","sheep","559e664dfdf99b4f28173b05",NA,"559e664dfdf99b4f28173b05_sheep","sheep",93,2127691,1483,25,"mirror","dist",0,5,"CR","dist3"
3,"detect-sheep","06/03/2023","sheep","559e664dfdf99b4f28173b05",NA,"559e664dfdf99b4f28173b05_sheep","sheep",94,2187552,1773,137,"mirror","dist",0,3,"CR","dist6"
3,"detect-sheep","06/03/2023","sheep","559e664dfdf99b4f28173b05",NA,"559e664dfdf99b4f28173b05_sheep","sheep",95,2194404,1405,190,"mirror","dist",0,2,"CR","dist6"
3,"detect-sheep","06/03/2023","sheep","559e664dfdf99b4f28173b05",NA,"559e664dfdf99b4f28173b05_sheep","sheep",96,2201016,1285,139,"mirror","wolf",0,4,"CR","wolf"
3,"detect-sheep","06/03/2023","sheep","559e664dfdf99b4f28173b05",NA,"559e664dfdf99b4f28173b05_sheep","sheep",97,2209092,1365,140,"mirror","dist",0,5,"CR","dist6"
3,"detect-sheep","06/03/2023","sheep","559e664dfdf99b4f28173b05",NA,"559e664dfdf99b4f28173b05_sheep","sheep",98,2216301,1928,138,"mirror","dist",0,1,"CR","dist5"
3,"detect-sheep","06/03/2023","sheep","559e664dfdf99b4f28173b05",NA,"559e664dfdf99b4f28173b05_sheep","sheep",99,2225871,4275,86,"mirror","wolf",0,3,"CR","wolf"
3,"detect-sheep","06/03/2023","sheep","559e664dfdf99b4f28173b05",NA,"559e664dfdf99b4f28173b05_sheep","sheep",100,2233170,1794,181,"mirror","dist",0,5,"CR","dist1"
3,"detect-sheep","06/03/2023","sheep","55a55bd7fdf99b790558627c",NA,"55a55bd7fdf99b790558627c_sheep","sheep",1,169026,1013.6,218,"mirror","dist",0,1,"CR","dist4"
3,"detect-sheep","06/03/2023","sheep","55a55bd7fdf99b790558627c",NA,"55a55bd7fdf99b790558627c_sheep","sheep",2,175559,1732.7,155,"chase","sheep",1,2,"Hit","sheep"
3,"detect-sheep","06/03/2023","sheep","55a55bd7fdf99b790558627c",NA,"55a55bd7fdf99b790558627c_sheep","sheep",3,182806,1708.5,107,"chase","dist",0,1,"Ms","dist2"
3,"detect-sheep","06/03/2023","sheep","55a55bd7fdf99b790558627c",NA,"55a55bd7fdf99b790558627c_sheep","sheep",4,189248,1258.2,28,"chase","sheep",1,3,"Hit","sheep"
3,"detect-sheep","06/03/2023","sheep","55a55bd7fdf99b790558627c",NA,"55a55bd7fdf99b790558627c_sheep","sheep",5,195831,1346.8,191,"chase","sheep",1,2,"Hit","sheep"
3,"detect-sheep","06/03/2023","sheep","55a55bd7fdf99b790558627c",NA,"55a55bd7fdf99b790558627c_sheep","sheep",6,201572,919.1,165,"chase","sheep",1,2,"Hit","sheep"
3,"detect-sheep","06/03/2023","sheep","55a55bd7fdf99b790558627c",NA,"55a55bd7fdf99b790558627c_sheep","sheep",7,208040,1108.9,39,"chase","sheep",1,3,"Hit","sheep"
3,"detect-sheep","06/03/2023","sheep","55a55bd7fdf99b790558627c",NA,"55a55bd7fdf99b790558627c_sheep","sheep",8,214002,1151.7,143,"chase","sheep",1,3,"Hit","sheep"
3,"detect-sheep","06/03/2023","sheep","55a55bd7fdf99b790558627c",NA,"55a55bd7fdf99b790558627c_sheep","sheep",9,220269,1355.8,101,"mirror","dist",0,2,"CR","dist3"
3,"detect-sheep","06/03/2023","sheep","55a55bd7fdf99b790558627c",NA,"55a55bd7fdf99b790558627c_sheep","sheep",10,226841,1414.4,225,"mirror","dist",0,1,"CR","dist4"
3,"detect-sheep","06/03/2023","sheep","55a55bd7fdf99b790558627c",NA,"55a55bd7fdf99b790558627c_sheep","sheep",11,233216,1409,6,"mirror","dist",0,3,"CR","dist4"
3,"detect-sheep","06/03/2023","sheep","55a55bd7fdf99b790558627c",NA,"55a55bd7fdf99b790558627c_sheep","sheep",12,239982,1998.2,119,"mirror","dist",0,1,"CR","dist1"
3,"detect-sheep","06/03/2023","sheep","55a55bd7fdf99b790558627c",NA,"55a55bd7fdf99b790558627c_sheep","sheep",13,246379,1441.2,104,"mirror","dist",0,1,"CR","dist6"
3,"detect-sheep","06/03/2023","sheep","55a55bd7fdf99b790558627c",NA,"55a55bd7fdf99b790558627c_sheep","sheep",14,252421,1219.5,108,"mirror","dist",0,1,"CR","dist6"
3,"detect-sheep","06/03/2023","sheep","55a55bd7fdf99b790558627c",NA,"55a55bd7fdf99b790558627c_sheep","sheep",15,258760,1135.8,198,"chase","sheep",1,4,"Hit","sheep"
3,"detect-sheep","06/03/2023","sheep","55a55bd7fdf99b790558627c",NA,"55a55bd7fdf99b790558627c_sheep","sheep",16,264653,775.9,162,"chase","dist",0,3,"Ms","dist5"
3,"detect-sheep","06/03/2023","sheep","55a55bd7fdf99b790558627c",NA,"55a55bd7fdf99b790558627c_sheep","sheep",17,270906,1604.8,173,"mirror","dist",0,1,"CR","dist6"
3,"detect-sheep","06/03/2023","sheep","55a55bd7fdf99b790558627c",NA,"55a55bd7fdf99b790558627c_sheep","sheep",18,277546,1468,73,"chase","sheep",1,4,"Hit","sheep"
3,"detect-sheep","06/03/2023","sheep","55a55bd7fdf99b790558627c",NA,"55a55bd7fdf99b790558627c_sheep","sheep",19,284116,1547.6,151,"mirror","dist",0,1,"CR","dist3"
3,"detect-sheep","06/03/2023","sheep","55a55bd7fdf99b790558627c",NA,"55a55bd7fdf99b790558627c_sheep","sheep",20,290167,865,167,"mirror","dist",0,3,"CR","dist4"
3,"detect-sheep","06/03/2023","sheep","55a55bd7fdf99b790558627c",NA,"55a55bd7fdf99b790558627c_sheep","sheep",21,296018,1142.1,5,"mirror","dist",0,1,"CR","dist1"
3,"detect-sheep","06/03/2023","sheep","55a55bd7fdf99b790558627c",NA,"55a55bd7fdf99b790558627c_sheep","sheep",22,302765,1962.7,19,"mirror","dist",0,1,"CR","dist2"
3,"detect-sheep","06/03/2023","sheep","55a55bd7fdf99b790558627c",NA,"55a55bd7fdf99b790558627c_sheep","sheep",23,309024,1477.8,83,"mirror","sheep",1,3,"FA","sheep"
3,"detect-sheep","06/03/2023","sheep","55a55bd7fdf99b790558627c",NA,"55a55bd7fdf99b790558627c_sheep","sheep",24,314820,1144.6,161,"mirror","dist",0,1,"CR","dist5"
3,"detect-sheep","06/03/2023","sheep","55a55bd7fdf99b790558627c",NA,"55a55bd7fdf99b790558627c_sheep","sheep",25,320814,1333.2,43,"mirror","sheep",1,1,"FA","sheep"
3,"detect-sheep","06/03/2023","sheep","55a55bd7fdf99b790558627c",NA,"55a55bd7fdf99b790558627c_sheep","sheep",26,326876,1158.3,205,"mirror","dist",0,2,"CR","dist6"
3,"detect-sheep","06/03/2023","sheep","55a55bd7fdf99b790558627c",NA,"55a55bd7fdf99b790558627c_sheep","sheep",27,332801,1242,203,"mirror","dist",0,1,"CR","dist6"
3,"detect-sheep","06/03/2023","sheep","55a55bd7fdf99b790558627c",NA,"55a55bd7fdf99b790558627c_sheep","sheep",28,338646,1100,132,"mirror","sheep",1,3,"FA","sheep"
3,"detect-sheep","06/03/2023","sheep","55a55bd7fdf99b790558627c",NA,"55a55bd7fdf99b790558627c_sheep","sheep",29,344615,1256.3,55,"mirror","dist",0,1,"CR","dist2"
3,"detect-sheep","06/03/2023","sheep","55a55bd7fdf99b790558627c",NA,"55a55bd7fdf99b790558627c_sheep","sheep",30,350718,1179.7,100,"mirror","wolf",0,1,"CR","wolf"
3,"detect-sheep","06/03/2023","sheep","55a55bd7fdf99b790558627c",NA,"55a55bd7fdf99b790558627c_sheep","sheep",31,357503,2167,135,"mirror","dist",0,1,"CR","dist6"
3,"detect-sheep","06/03/2023","sheep","55a55bd7fdf99b790558627c",NA,"55a55bd7fdf99b790558627c_sheep","sheep",32,363546,1325.7,181,"mirror","dist",0,1,"CR","dist1"
3,"detect-sheep","06/03/2023","sheep","55a55bd7fdf99b790558627c",NA,"55a55bd7fdf99b790558627c_sheep","sheep",33,369228,1059.4,75,"chase","sheep",1,3,"Hit","sheep"
3,"detect-sheep","06/03/2023","sheep","55a55bd7fdf99b790558627c",NA,"55a55bd7fdf99b790558627c_sheep","sheep",34,374845,813.7,94,"chase","dist",0,1,"Ms","dist6"
3,"detect-sheep","06/03/2023","sheep","55a55bd7fdf99b790558627c",NA,"55a55bd7fdf99b790558627c_sheep","sheep",35,380772,1145.4,180,"chase","dist",0,3,"Ms","dist2"
3,"detect-sheep","06/03/2023","sheep","55a55bd7fdf99b790558627c",NA,"55a55bd7fdf99b790558627c_sheep","sheep",36,387051,1497.7,217,"chase","dist",0,2,"Ms","dist5"
3,"detect-sheep","06/03/2023","sheep","55a55bd7fdf99b790558627c",NA,"55a55bd7fdf99b790558627c_sheep","sheep",37,393317,1099.9,178,"chase","sheep",1,4,"Hit","sheep"
3,"detect-sheep","06/03/2023","sheep","55a55bd7fdf99b790558627c",NA,"55a55bd7fdf99b790558627c_sheep","sheep",38,399181,1105.2,13,"chase","dist",0,1,"Ms","dist3"
3,"detect-sheep","06/03/2023","sheep","55a55bd7fdf99b790558627c",NA,"55a55bd7fdf99b790558627c_sheep","sheep",39,405902,1383.6,60,"chase","sheep",1,4,"Hit","sheep"
3,"detect-sheep","06/03/2023","sheep","55a55bd7fdf99b790558627c",NA,"55a55bd7fdf99b790558627c_sheep","sheep",40,412186,1101.1,137,"mirror","dist",0,3,"CR","dist3"
3,"detect-sheep","06/03/2023","sheep","55a55bd7fdf99b790558627c",NA,"55a55bd7fdf99b790558627c_sheep","sheep",41,419062,1224.2,121,"mirror","dist",0,1,"CR","dist5"
3,"detect-sheep","06/03/2023","sheep","55a55bd7fdf99b790558627c",NA,"55a55bd7fdf99b790558627c_sheep","sheep",42,425625,1303,153,"chase","sheep",1,4,"Hit","sheep"
3,"detect-sheep","06/03/2023","sheep","55a55bd7fdf99b790558627c",NA,"55a55bd7fdf99b790558627c_sheep","sheep",43,432061,1078.8,80,"chase","sheep",1,3,"Hit","sheep"
3,"detect-sheep","06/03/2023","sheep","55a55bd7fdf99b790558627c",NA,"55a55bd7fdf99b790558627c_sheep","sheep",44,438217,1381,182,"chase","dist",0,1,"Ms","dist6"
3,"detect-sheep","06/03/2023","sheep","55a55bd7fdf99b790558627c",NA,"55a55bd7fdf99b790558627c_sheep","sheep",45,444367,1345.2,11,"chase","dist",0,1,"Ms","dist4"
3,"detect-sheep","06/03/2023","sheep","55a55bd7fdf99b790558627c",NA,"55a55bd7fdf99b790558627c_sheep","sheep",46,450562,1323.9,201,"mirror","dist",0,1,"CR","dist5"
3,"detect-sheep","06/03/2023","sheep","55a55bd7fdf99b790558627c",NA,"55a55bd7fdf99b790558627c_sheep","sheep",47,456765,978.6,273,"chase","sheep",1,3,"Hit","sheep"
3,"detect-sheep","06/03/2023","sheep","55a55bd7fdf99b790558627c",NA,"55a55bd7fdf99b790558627c_sheep","sheep",48,463099,1144.2,31,"mirror","dist",0,2,"CR","dist4"
3,"detect-sheep","06/03/2023","sheep","55a55bd7fdf99b790558627c",NA,"55a55bd7fdf99b790558627c_sheep","sheep",49,469752,1860.4,209,"mirror","sheep",1,1,"FA","sheep"
3,"detect-sheep","06/03/2023","sheep","55a55bd7fdf99b790558627c",NA,"55a55bd7fdf99b790558627c_sheep","sheep",50,476069,1286.2,242,"mirror","dist",0,1,"CR","dist3"
3,"detect-sheep","06/03/2023","sheep","55a55bd7fdf99b790558627c",NA,"55a55bd7fdf99b790558627c_sheep","sheep",51,482760,1932.1,15,"mirror","dist",0,1,"CR","dist2"
3,"detect-sheep","06/03/2023","sheep","55a55bd7fdf99b790558627c",NA,"55a55bd7fdf99b790558627c_sheep","sheep",52,489371,1290,211,"mirror","dist",0,1,"CR","dist1"
3,"detect-sheep","06/03/2023","sheep","55a55bd7fdf99b790558627c",NA,"55a55bd7fdf99b790558627c_sheep","sheep",53,496589,2146.3,248,"chase","dist",0,1,"Ms","dist2"
3,"detect-sheep","06/03/2023","sheep","55a55bd7fdf99b790558627c",NA,"55a55bd7fdf99b790558627c_sheep","sheep",54,502697,935.6,192,"mirror","dist",0,1,"CR","dist2"
3,"detect-sheep","06/03/2023","sheep","55a55bd7fdf99b790558627c",NA,"55a55bd7fdf99b790558627c_sheep","sheep",55,509234,1391.7,96,"chase","sheep",1,1,"Hit","sheep"
3,"detect-sheep","06/03/2023","sheep","55a55bd7fdf99b790558627c",NA,"55a55bd7fdf99b790558627c_sheep","sheep",56,516071,1538.2,247,"mirror","dist",0,1,"CR","dist2"
3,"detect-sheep","06/03/2023","sheep","55a55bd7fdf99b790558627c",NA,"55a55bd7fdf99b790558627c_sheep","sheep",57,522348,1066.1,208,"chase","sheep",1,3,"Hit","sheep"
3,"detect-sheep","06/03/2023","sheep","55a55bd7fdf99b790558627c",NA,"55a55bd7fdf99b790558627c_sheep","sheep",58,528599,1089.1,179,"chase","sheep",1,3,"Hit","sheep"
3,"detect-sheep","06/03/2023","sheep","55a55bd7fdf99b790558627c",NA,"55a55bd7fdf99b790558627c_sheep","sheep",59,535967,2151.7,47,"mirror","wolf",0,1,"CR","wolf"
3,"detect-sheep","06/03/2023","sheep","55a55bd7fdf99b790558627c",NA,"55a55bd7fdf99b790558627c_sheep","sheep",60,542109,960.9,265,"chase","sheep",1,3,"Hit","sheep"
3,"detect-sheep","06/03/2023","sheep","55a55bd7fdf99b790558627c",NA,"55a55bd7fdf99b790558627c_sheep","sheep",61,548837,1640.7,157,"mirror","dist",0,1,"CR","dist6"
3,"detect-sheep","06/03/2023","sheep","55a55bd7fdf99b790558627c",NA,"55a55bd7fdf99b790558627c_sheep","sheep",62,555685,1680.5,253,"mirror","dist",0,1,"CR","dist3"
3,"detect-sheep","06/03/2023","sheep","55a55bd7fdf99b790558627c",NA,"55a55bd7fdf99b790558627c_sheep","sheep",63,561935,1133.6,177,"chase","sheep",1,1,"Hit","sheep"
3,"detect-sheep","06/03/2023","sheep","55a55bd7fdf99b790558627c",NA,"55a55bd7fdf99b790558627c_sheep","sheep",64,568261,1254.2,103,"mirror","dist",0,1,"CR","dist1"
3,"detect-sheep","06/03/2023","sheep","55a55bd7fdf99b790558627c",NA,"55a55bd7fdf99b790558627c_sheep","sheep",65,574441,1056.7,38,"chase","sheep",1,1,"Hit","sheep"
3,"detect-sheep","06/03/2023","sheep","55a55bd7fdf99b790558627c",NA,"55a55bd7fdf99b790558627c_sheep","sheep",66,580667,1150.8,40,"chase","dist",0,1,"Ms","dist4"
3,"detect-sheep","06/03/2023","sheep","55a55bd7fdf99b790558627c",NA,"55a55bd7fdf99b790558627c_sheep","sheep",67,586927,1151.7,50,"mirror","dist",0,1,"CR","dist5"
3,"detect-sheep","06/03/2023","sheep","55a55bd7fdf99b790558627c",NA,"55a55bd7fdf99b790558627c_sheep","sheep",68,593121,847.4,261,"chase","dist",0,1,"Ms","dist1"
3,"detect-sheep","06/03/2023","sheep","55a55bd7fdf99b790558627c",NA,"55a55bd7fdf99b790558627c_sheep","sheep",69,599719,1025.3,185,"chase","sheep",1,3,"Hit","sheep"
3,"detect-sheep","06/03/2023","sheep","55a55bd7fdf99b790558627c",NA,"55a55bd7fdf99b790558627c_sheep","sheep",70,605684,814.2,277,"chase","sheep",1,2,"Hit","sheep"
3,"detect-sheep","06/03/2023","sheep","55a55bd7fdf99b790558627c",NA,"55a55bd7fdf99b790558627c_sheep","sheep",71,612065,1267.8,89,"mirror","dist",0,1,"CR","dist6"
3,"detect-sheep","06/03/2023","sheep","55a55bd7fdf99b790558627c",NA,"55a55bd7fdf99b790558627c_sheep","sheep",72,619029,1773.4,292,"chase","dist",0,1,"Ms","dist3"
3,"detect-sheep","06/03/2023","sheep","55a55bd7fdf99b790558627c",NA,"55a55bd7fdf99b790558627c_sheep","sheep",73,625654,1487.7,300,"mirror","dist",0,1,"CR","dist5"
3,"detect-sheep","06/03/2023","sheep","55a55bd7fdf99b790558627c",NA,"55a55bd7fdf99b790558627c_sheep","sheep",74,632072,1321.3,175,"chase","dist",0,1,"Ms","dist1"
3,"detect-sheep","06/03/2023","sheep","55a55bd7fdf99b790558627c",NA,"55a55bd7fdf99b790558627c_sheep","sheep",75,638201,1056.6,59,"chase","dist",0,1,"Ms","dist2"
3,"detect-sheep","06/03/2023","sheep","55a55bd7fdf99b790558627c",NA,"55a55bd7fdf99b790558627c_sheep","sheep",76,644805,1523.8,67,"chase","wolf",0,1,"Ms","wolf"
3,"detect-sheep","06/03/2023","sheep","55a55bd7fdf99b790558627c",NA,"55a55bd7fdf99b790558627c_sheep","sheep",77,650936,1043.3,221,"mirror","dist",0,1,"CR","dist6"
3,"detect-sheep","06/03/2023","sheep","55a55bd7fdf99b790558627c",NA,"55a55bd7fdf99b790558627c_sheep","sheep",78,656986,974.1,131,"mirror","dist",0,1,"CR","dist3"
3,"detect-sheep","06/03/2023","sheep","55a55bd7fdf99b790558627c",NA,"55a55bd7fdf99b790558627c_sheep","sheep",79,663713,1482.1,224,"chase","sheep",1,3,"Hit","sheep"
3,"detect-sheep","06/03/2023","sheep","55a55bd7fdf99b790558627c",NA,"55a55bd7fdf99b790558627c_sheep","sheep",80,670059,1044.4,98,"chase","sheep",1,1,"Hit","sheep"
3,"detect-sheep","06/03/2023","sheep","55a55bd7fdf99b790558627c",NA,"55a55bd7fdf99b790558627c_sheep","sheep",81,676792,1463.8,124,"chase","sheep",1,3,"Hit","sheep"
3,"detect-sheep","06/03/2023","sheep","55a55bd7fdf99b790558627c",NA,"55a55bd7fdf99b790558627c_sheep","sheep",82,682814,883.5,32,"chase","sheep",1,3,"Hit","sheep"
3,"detect-sheep","06/03/2023","sheep","55a55bd7fdf99b790558627c",NA,"55a55bd7fdf99b790558627c_sheep","sheep",83,688966,1001.4,296,"mirror","dist",0,1,"CR","dist2"
3,"detect-sheep","06/03/2023","sheep","55a55bd7fdf99b790558627c",NA,"55a55bd7fdf99b790558627c_sheep","sheep",84,695720,1613.6,268,"chase","sheep",1,1,"Hit","sheep"
3,"detect-sheep","06/03/2023","sheep","55a55bd7fdf99b790558627c",NA,"55a55bd7fdf99b790558627c_sheep","sheep",85,701892,999.1,244,"chase","sheep",1,4,"Hit","sheep"
3,"detect-sheep","06/03/2023","sheep","55a55bd7fdf99b790558627c",NA,"55a55bd7fdf99b790558627c_sheep","sheep",86,708617,1660.9,114,"mirror","dist",0,1,"CR","dist3"
3,"detect-sheep","06/03/2023","sheep","55a55bd7fdf99b790558627c",NA,"55a55bd7fdf99b790558627c_sheep","sheep",87,714883,1155.7,227,"mirror","dist",0,1,"CR","dist5"
3,"detect-sheep","06/03/2023","sheep","55a55bd7fdf99b790558627c",NA,"55a55bd7fdf99b790558627c_sheep","sheep",88,720890,896.8,41,"mirror","wolf",0,1,"CR","wolf"
3,"detect-sheep","06/03/2023","sheep","55a55bd7fdf99b790558627c",NA,"55a55bd7fdf99b790558627c_sheep","sheep",89,727105,1055.2,84,"chase","dist",0,1,"Ms","dist5"
3,"detect-sheep","06/03/2023","sheep","55a55bd7fdf99b790558627c",NA,"55a55bd7fdf99b790558627c_sheep","sheep",90,733534,1325.8,291,"chase","sheep",1,2,"Hit","sheep"
3,"detect-sheep","06/03/2023","sheep","55a55bd7fdf99b790558627c",NA,"55a55bd7fdf99b790558627c_sheep","sheep",91,739525,838.5,272,"chase","dist",0,1,"Ms","dist1"
3,"detect-sheep","06/03/2023","sheep","55a55bd7fdf99b790558627c",NA,"55a55bd7fdf99b790558627c_sheep","sheep",92,745623,1100.3,145,"mirror","dist",0,1,"CR","dist3"
3,"detect-sheep","06/03/2023","sheep","55a55bd7fdf99b790558627c",NA,"55a55bd7fdf99b790558627c_sheep","sheep",93,752204,1394.7,280,"chase","dist",0,1,"Ms","dist6"
3,"detect-sheep","06/03/2023","sheep","55a55bd7fdf99b790558627c",NA,"55a55bd7fdf99b790558627c_sheep","sheep",94,758558,985.2,200,"chase","sheep",1,1,"Hit","sheep"
3,"detect-sheep","06/03/2023","sheep","55a55bd7fdf99b790558627c",NA,"55a55bd7fdf99b790558627c_sheep","sheep",95,765079,1287.5,251,"mirror","dist",0,1,"CR","dist6"
3,"detect-sheep","06/03/2023","sheep","55a55bd7fdf99b790558627c",NA,"55a55bd7fdf99b790558627c_sheep","sheep",96,771531,1393.8,120,"mirror","dist",0,1,"CR","dist1"
3,"detect-sheep","06/03/2023","sheep","55a55bd7fdf99b790558627c",NA,"55a55bd7fdf99b790558627c_sheep","sheep",97,777747,965.2,4,"chase","sheep",1,3,"Hit","sheep"
3,"detect-sheep","06/03/2023","sheep","55a55bd7fdf99b790558627c",NA,"55a55bd7fdf99b790558627c_sheep","sheep",98,783734,892.2,91,"chase","dist",0,2,"Ms","dist5"
3,"detect-sheep","06/03/2023","sheep","55a55bd7fdf99b790558627c",NA,"55a55bd7fdf99b790558627c_sheep","sheep",99,790073,1302.4,183,"mirror","dist",0,1,"CR","dist3"
3,"detect-sheep","06/03/2023","sheep","55a55bd7fdf99b790558627c",NA,"55a55bd7fdf99b790558627c_sheep","sheep",100,796323,1089.3,136,"mirror","dist",0,1,"CR","dist1"
3,"detect-sheep",NA,"sheep","574eab79c18847000e071119",NA,"574eab79c18847000e071119_sheep","sheep",1,426471,1300,112,"chase","dist",0,3,"Ms","dist4"
3,"detect-sheep",NA,"sheep","574eab79c18847000e071119",NA,"574eab79c18847000e071119_sheep","sheep",2,435627,1215.8,30,"mirror","dist",0,4,"CR","dist6"
3,"detect-sheep",NA,"sheep","574eab79c18847000e071119",NA,"574eab79c18847000e071119_sheep","sheep",3,442586,1610.8,107,"mirror","dist",0,1,"CR","dist3"
3,"detect-sheep",NA,"sheep","574eab79c18847000e071119",NA,"574eab79c18847000e071119_sheep","sheep",4,449200,966.4000001,6,"mirror","dist",0,4,"CR","dist5"
3,"detect-sheep",NA,"sheep","574eab79c18847000e071119",NA,"574eab79c18847000e071119_sheep","sheep",5,455736,1135.7,91,"mirror","dist",0,5,"CR","dist2"
3,"detect-sheep",NA,"sheep","574eab79c18847000e071119",NA,"574eab79c18847000e071119_sheep","sheep",6,463583,2143.3,78,"chase","dist",0,2,"Ms","dist2"
3,"detect-sheep",NA,"sheep","574eab79c18847000e071119",NA,"574eab79c18847000e071119_sheep","sheep",7,471384,1812,192,"chase","dist",0,3,"Ms","dist6"
3,"detect-sheep",NA,"sheep","574eab79c18847000e071119",NA,"574eab79c18847000e071119_sheep","sheep",8,478595,1177.4,155,"chase","dist",0,5,"Ms","dist2"
3,"detect-sheep",NA,"sheep","574eab79c18847000e071119",NA,"574eab79c18847000e071119_sheep","sheep",9,485352,990.3,81,"mirror","dist",0,3,"CR","dist6"
3,"detect-sheep",NA,"sheep","574eab79c18847000e071119",NA,"574eab79c18847000e071119_sheep","sheep",10,491816,970.6000001,173,"mirror","wolf",0,3,"CR","wolf"
3,"detect-sheep",NA,"sheep","574eab79c18847000e071119",NA,"574eab79c18847000e071119_sheep","sheep",11,499040,1552.9,166,"mirror","dist",0,2,"CR","dist5"
3,"detect-sheep",NA,"sheep","574eab79c18847000e071119",NA,"574eab79c18847000e071119_sheep","sheep",12,505959,935.5,94,"chase","sheep",1,5,"Hit","sheep"
3,"detect-sheep",NA,"sheep","574eab79c18847000e071119",NA,"574eab79c18847000e071119_sheep","sheep",13,512924,1569.2,171,"chase","dist",0,5,"Ms","dist4"
3,"detect-sheep",NA,"sheep","574eab79c18847000e071119",NA,"574eab79c18847000e071119_sheep","sheep",14,519071,868.8999999,27,"chase","sheep",1,4,"Hit","sheep"
3,"detect-sheep",NA,"sheep","574eab79c18847000e071119",NA,"574eab79c18847000e071119_sheep","sheep",15,526062,1647.5,111,"chase","wolf",0,2,"Ms","wolf"
3,"detect-sheep",NA,"sheep","574eab79c18847000e071119",NA,"574eab79c18847000e071119_sheep","sheep",16,533041,862.5,28,"chase","wolf",0,5,"Ms","wolf"
3,"detect-sheep",NA,"sheep","574eab79c18847000e071119",NA,"574eab79c18847000e071119_sheep","sheep",17,541640,2645.6,95,"mirror","dist",0,3,"CR","dist6"
3,"detect-sheep",NA,"sheep","574eab79c18847000e071119",NA,"574eab79c18847000e071119_sheep","sheep",18,547838,882.3,169,"mirror","dist",0,5,"CR","dist4"
3,"detect-sheep",NA,"sheep","574eab79c18847000e071119",NA,"574eab79c18847000e071119_sheep","sheep",19,555105,1436.7,176,"mirror","dist",0,4,"CR","dist4"
3,"detect-sheep",NA,"sheep","574eab79c18847000e071119",NA,"574eab79c18847000e071119_sheep","sheep",20,561574,847.1000001,15,"mirror","dist",0,4,"CR","dist6"
3,"detect-sheep",NA,"sheep","574eab79c18847000e071119",NA,"574eab79c18847000e071119_sheep","sheep",21,568604,1563.8,172,"chase","sheep",1,5,"Hit","sheep"
3,"detect-sheep",NA,"sheep","574eab79c18847000e071119",NA,"574eab79c18847000e071119_sheep","sheep",22,575595,1094.9,180,"mirror","wolf",0,5,"CR","wolf"
3,"detect-sheep",NA,"sheep","574eab79c18847000e071119",NA,"574eab79c18847000e071119_sheep","sheep",23,583444,1414,186,"chase","sheep",1,5,"Hit","sheep"
3,"detect-sheep",NA,"sheep","574eab79c18847000e071119",NA,"574eab79c18847000e071119_sheep","sheep",24,590081,1185.7,31,"mirror","dist",0,5,"CR","dist6"
3,"detect-sheep",NA,"sheep","574eab79c18847000e071119",NA,"574eab79c18847000e071119_sheep","sheep",25,596607,1134.2,26,"chase","dist",0,3,"Ms","dist4"
3,"detect-sheep",NA,"sheep","574eab79c18847000e071119",NA,"574eab79c18847000e071119_sheep","sheep",26,604278,2118.8,164,"mirror","dist",0,2,"CR","dist5"
3,"detect-sheep",NA,"sheep","574eab79c18847000e071119",NA,"574eab79c18847000e071119_sheep","sheep",27,611487,962,175,"chase","dist",0,5,"Ms","dist6"
3,"detect-sheep",NA,"sheep","574eab79c18847000e071119",NA,"574eab79c18847000e071119_sheep","sheep",28,619497,2198.5,108,"chase","sheep",1,2,"Hit","sheep"
3,"detect-sheep",NA,"sheep","574eab79c18847000e071119",NA,"574eab79c18847000e071119_sheep","sheep",29,625951,939.9000001,182,"mirror","wolf",0,4,"CR","wolf"
3,"detect-sheep",NA,"sheep","574eab79c18847000e071119",NA,"574eab79c18847000e071119_sheep","sheep",30,633166,1943,154,"mirror","dist",0,1,"CR","dist6"
3,"detect-sheep",NA,"sheep","574eab79c18847000e071119",NA,"574eab79c18847000e071119_sheep","sheep",31,639923,1524.8,83,"chase","dist",0,4,"Ms","dist1"
3,"detect-sheep",NA,"sheep","574eab79c18847000e071119",NA,"574eab79c18847000e071119_sheep","sheep",32,648320,3301.2,67,"chase","dist",0,2,"Ms","dist5"
3,"detect-sheep",NA,"sheep","574eab79c18847000e071119",NA,"574eab79c18847000e071119_sheep","sheep",33,655262,1483.3,274,"chase","sheep",1,5,"Hit","sheep"
3,"detect-sheep",NA,"sheep","574eab79c18847000e071119",NA,"574eab79c18847000e071119_sheep","sheep",34,664261,3603.3,11,"mirror","dist",0,2,"CR","dist2"
3,"detect-sheep",NA,"sheep","574eab79c18847000e071119",NA,"574eab79c18847000e071119_sheep","sheep",35,671247,960.8,193,"chase","sheep",1,5,"Hit","sheep"
3,"detect-sheep",NA,"sheep","574eab79c18847000e071119",NA,"574eab79c18847000e071119_sheep","sheep",36,688505,6434.9,134,"mirror","dist",0,3,"CR","dist6"
3,"detect-sheep",NA,"sheep","574eab79c18847000e071119",NA,"574eab79c18847000e071119_sheep","sheep",37,696848,3040.2,163,"mirror","dist",0,1,"CR","dist1"
3,"detect-sheep",NA,"sheep","574eab79c18847000e071119",NA,"574eab79c18847000e071119_sheep","sheep",38,703754,1587,104,"chase","sheep",1,3,"Hit","sheep"
3,"detect-sheep",NA,"sheep","574eab79c18847000e071119",NA,"574eab79c18847000e071119_sheep","sheep",39,710573,945.3,161,"chase","sheep",1,5,"Hit","sheep"
3,"detect-sheep",NA,"sheep","574eab79c18847000e071119",NA,"574eab79c18847000e071119_sheep","sheep",40,718558,2610.5,130,"chase","dist",0,3,"Ms","dist5"
3,"detect-sheep",NA,"sheep","574eab79c18847000e071119",NA,"574eab79c18847000e071119_sheep","sheep",41,725783,1545.1,101,"chase","dist",0,2,"Ms","dist2"
3,"detect-sheep",NA,"sheep","574eab79c18847000e071119",NA,"574eab79c18847000e071119_sheep","sheep",42,732594,925,114,"mirror","dist",0,3,"CR","dist3"
3,"detect-sheep",NA,"sheep","574eab79c18847000e071119",NA,"574eab79c18847000e071119_sheep","sheep",43,742670,4019.4,256,"mirror","sheep",1,1,"FA","sheep"
3,"detect-sheep",NA,"sheep","574eab79c18847000e071119",NA,"574eab79c18847000e071119_sheep","sheep",44,749538,1053.1,126,"chase","dist",0,5,"Ms","dist2"
3,"detect-sheep",NA,"sheep","574eab79c18847000e071119",NA,"574eab79c18847000e071119_sheep","sheep",45,757486,2592.3,197,"mirror","dist",0,4,"CR","dist6"
3,"detect-sheep",NA,"sheep","574eab79c18847000e071119",NA,"574eab79c18847000e071119_sheep","sheep",46,763605,880.7,47,"chase","sheep",1,5,"Hit","sheep"
3,"detect-sheep",NA,"sheep","574eab79c18847000e071119",NA,"574eab79c18847000e071119_sheep","sheep",47,771133,2065.7,8,"mirror","dist",0,1,"CR","dist1"
3,"detect-sheep",NA,"sheep","574eab79c18847000e071119",NA,"574eab79c18847000e071119_sheep","sheep",48,778022,1186.2,187,"mirror","dist",0,4,"CR","dist3"
3,"detect-sheep",NA,"sheep","574eab79c18847000e071119",NA,"574eab79c18847000e071119_sheep","sheep",49,785310,1593.5,118,"chase","dist",0,5,"Ms","dist3"
3,"detect-sheep",NA,"sheep","574eab79c18847000e071119",NA,"574eab79c18847000e071119_sheep","sheep",50,792621,1565.1,127,"chase","dist",0,5,"Ms","dist6"
3,"detect-sheep",NA,"sheep","574eab79c18847000e071119",NA,"574eab79c18847000e071119_sheep","sheep",51,799309,1279.9,224,"mirror","dist",0,5,"CR","dist1"
3,"detect-sheep",NA,"sheep","574eab79c18847000e071119",NA,"574eab79c18847000e071119_sheep","sheep",52,806409,1546,185,"chase","sheep",1,4,"Hit","sheep"
3,"detect-sheep",NA,"sheep","574eab79c18847000e071119",NA,"574eab79c18847000e071119_sheep","sheep",53,813734,2157,234,"mirror","dist",0,1,"CR","dist3"
3,"detect-sheep","06/03/2023","sheep","57d6b1718e00270001b430cc",NA,"57d6b1718e00270001b430cc_sheep","sheep",1,165914,1776.9,109,"mirror","dist",0,2,"CR","dist6"
3,"detect-sheep","06/03/2023","sheep","57d6b1718e00270001b430cc",NA,"57d6b1718e00270001b430cc_sheep","sheep",2,173341,1766.5,188,"chase","dist",0,3,"Ms","dist6"
3,"detect-sheep","06/03/2023","sheep","57d6b1718e00270001b430cc",NA,"57d6b1718e00270001b430cc_sheep","sheep",3,180156,1528.1,37,"mirror","dist",0,1,"CR","dist2"
3,"detect-sheep","06/03/2023","sheep","57d6b1718e00270001b430cc",NA,"57d6b1718e00270001b430cc_sheep","sheep",4,188069,1539.7,105,"mirror","sheep",1,3,"FA","sheep"
3,"detect-sheep","06/03/2023","sheep","57d6b1718e00270001b430cc",NA,"57d6b1718e00270001b430cc_sheep","sheep",5,194367,965.7,49,"mirror","dist",0,4,"CR","dist1"
3,"detect-sheep","06/03/2023","sheep","57d6b1718e00270001b430cc",NA,"57d6b1718e00270001b430cc_sheep","sheep",6,200975,964.6,184,"chase","sheep",1,5,"Hit","sheep"
3,"detect-sheep","06/03/2023","sheep","57d6b1718e00270001b430cc",NA,"57d6b1718e00270001b430cc_sheep","sheep",7,207843,1405.8,180,"mirror","dist",0,3,"CR","dist3"
3,"detect-sheep","06/03/2023","sheep","57d6b1718e00270001b430cc",NA,"57d6b1718e00270001b430cc_sheep","sheep",8,215338,1556.4,183,"mirror","dist",0,2,"CR","dist4"
3,"detect-sheep","06/03/2023","sheep","57d6b1718e00270001b430cc",NA,"57d6b1718e00270001b430cc_sheep","sheep",9,222615,1830,176,"mirror","wolf",0,1,"CR","wolf"
3,"detect-sheep","06/03/2023","sheep","57d6b1718e00270001b430cc",NA,"57d6b1718e00270001b430cc_sheep","sheep",10,230143,1428.3,157,"mirror","dist",0,2,"CR","dist6"
3,"detect-sheep","06/03/2023","sheep","57d6b1718e00270001b430cc",NA,"57d6b1718e00270001b430cc_sheep","sheep",11,236652,1293.4,170,"mirror","dist",0,1,"CR","dist3"
3,"detect-sheep","06/03/2023","sheep","57d6b1718e00270001b430cc",NA,"57d6b1718e00270001b430cc_sheep","sheep",12,243558,1656.2,148,"chase","dist",0,2,"Ms","dist3"
3,"detect-sheep","06/03/2023","sheep","57d6b1718e00270001b430cc",NA,"57d6b1718e00270001b430cc_sheep","sheep",13,250678,1891,191,"mirror","dist",0,3,"CR","dist1"
3,"detect-sheep","06/03/2023","sheep","57d6b1718e00270001b430cc",NA,"57d6b1718e00270001b430cc_sheep","sheep",14,257061,1055.4,4,"chase","sheep",1,5,"Hit","sheep"
3,"detect-sheep","06/03/2023","sheep","57d6b1718e00270001b430cc",NA,"57d6b1718e00270001b430cc_sheep","sheep",15,263198,878.1999999,175,"chase","sheep",1,5,"Hit","sheep"
3,"detect-sheep","06/03/2023","sheep","57d6b1718e00270001b430cc",NA,"57d6b1718e00270001b430cc_sheep","sheep",16,270303,1526.6,257,"mirror","dist",0,3,"CR","dist2"
3,"detect-sheep","06/03/2023","sheep","57d6b1718e00270001b430cc",NA,"57d6b1718e00270001b430cc_sheep","sheep",17,277396,1843.3,62,"chase","dist",0,1,"Ms","dist5"
3,"detect-sheep","06/03/2023","sheep","57d6b1718e00270001b430cc",NA,"57d6b1718e00270001b430cc_sheep","sheep",18,287438,1437,83,"mirror","dist",0,4,"CR","dist5"
3,"detect-sheep","06/03/2023","sheep","57d6b1718e00270001b430cc",NA,"57d6b1718e00270001b430cc_sheep","sheep",19,303778,10409.7,249,"mirror","wolf",0,3,"CR","wolf"
3,"detect-sheep","06/03/2023","sheep","57d6b1718e00270001b430cc",NA,"57d6b1718e00270001b430cc_sheep","sheep",20,348070,18887.5,243,"chase","wolf",0,3,"Ms","wolf"
3,"detect-sheep","06/03/2023","sheep","57d6b1718e00270001b430cc",NA,"57d6b1718e00270001b430cc_sheep","sheep",21,369462,15549.4,78,"mirror","dist",0,3,"CR","dist3"
3,"detect-sheep","06/03/2023","sheep","57d6b1718e00270001b430cc",NA,"57d6b1718e00270001b430cc_sheep","sheep",22,381293,5690.2,47,"mirror","dist",0,4,"CR","dist5"
3,"detect-sheep","06/03/2023","sheep","57d6b1718e00270001b430cc",NA,"57d6b1718e00270001b430cc_sheep","sheep",23,394221,7064.3,69,"chase","dist",0,2,"Ms","dist5"
3,"detect-sheep","06/03/2023","sheep","57d6b1718e00270001b430cc",NA,"57d6b1718e00270001b430cc_sheep","sheep",24,414442,3053.9,179,"mirror","dist",0,3,"CR","dist5"
3,"detect-sheep","06/03/2023","sheep","57d6b1718e00270001b430cc",NA,"57d6b1718e00270001b430cc_sheep","sheep",25,424023,3940.6,123,"chase","dist",0,4,"Ms","dist5"
3,"detect-sheep","06/03/2023","sheep","57d6b1718e00270001b430cc",NA,"57d6b1718e00270001b430cc_sheep","sheep",26,430723,1218.3,268,"mirror","dist",0,2,"CR","dist3"
3,"detect-sheep","06/03/2023","sheep","57d6b1718e00270001b430cc",NA,"57d6b1718e00270001b430cc_sheep","sheep",27,479946,5467,190,"mirror","dist",0,4,"CR","dist4"
3,"detect-sheep","06/03/2023","sheep","57d6b1718e00270001b430cc",NA,"57d6b1718e00270001b430cc_sheep","sheep",28,486519,1226.8,286,"mirror","sheep",1,5,"FA","sheep"
3,"detect-sheep","06/03/2023","sheep","57d6b1718e00270001b430cc",NA,"57d6b1718e00270001b430cc_sheep","sheep",29,494403,2578.3,110,"chase","dist",0,5,"Ms","dist2"
3,"detect-sheep","06/03/2023","sheep","57d6b1718e00270001b430cc",NA,"57d6b1718e00270001b430cc_sheep","sheep",30,501086,1328.5,189,"chase","sheep",1,5,"Hit","sheep"
3,"detect-sheep","06/03/2023","sheep","57d6b1718e00270001b430cc",NA,"57d6b1718e00270001b430cc_sheep","sheep",31,507878,1177.4,245,"mirror","dist",0,3,"CR","dist6"
3,"detect-sheep","06/03/2023","sheep","57d6b1718e00270001b430cc",NA,"57d6b1718e00270001b430cc_sheep","sheep",32,514641,1114.5,119,"chase","dist",0,4,"Ms","dist1"
3,"detect-sheep","06/03/2023","sheep","57d6b1718e00270001b430cc",NA,"57d6b1718e00270001b430cc_sheep","sheep",33,521104,1080.5,297,"chase","dist",0,5,"Ms","dist4"
3,"detect-sheep","06/03/2023","sheep","57d6b1718e00270001b430cc",NA,"57d6b1718e00270001b430cc_sheep","sheep",34,527455,984.1999999,185,"mirror","dist",0,4,"CR","dist5"
3,"detect-sheep","06/03/2023","sheep","57d6b1718e00270001b430cc",NA,"57d6b1718e00270001b430cc_sheep","sheep",35,534812,1857.5,137,"mirror","dist",0,3,"CR","dist1"
3,"detect-sheep","06/03/2023","sheep","57d6b1718e00270001b430cc",NA,"57d6b1718e00270001b430cc_sheep","sheep",36,541229,1150.9,18,"chase","sheep",1,1,"Hit","sheep"
3,"detect-sheep","06/03/2023","sheep","57d6b1718e00270001b430cc",NA,"57d6b1718e00270001b430cc_sheep","sheep",37,548029,1327.6,168,"chase","dist",0,3,"Ms","dist1"
3,"detect-sheep","06/03/2023","sheep","57d6b1718e00270001b430cc",NA,"57d6b1718e00270001b430cc_sheep","sheep",38,554924,1663.3,74,"mirror","dist",0,1,"CR","dist6"
3,"detect-sheep","06/03/2023","sheep","57d6b1718e00270001b430cc",NA,"57d6b1718e00270001b430cc_sheep","sheep",39,565517,4876.2,133,"mirror","dist",0,4,"CR","dist4"
3,"detect-sheep","06/03/2023","sheep","57d6b1718e00270001b430cc",NA,"57d6b1718e00270001b430cc_sheep","sheep",40,572033,1126.5,100,"mirror","sheep",1,5,"FA","sheep"
3,"detect-sheep","06/03/2023","sheep","57d6b1718e00270001b430cc",NA,"57d6b1718e00270001b430cc_sheep","sheep",41,579070,1614.8,290,"chase","dist",0,2,"Ms","dist2"
3,"detect-sheep","06/03/2023","sheep","57d6b1718e00270001b430cc",NA,"57d6b1718e00270001b430cc_sheep","sheep",42,587502,3173.4,142,"chase","dist",0,1,"Ms","dist2"
3,"detect-sheep","06/03/2023","sheep","57d6b1718e00270001b430cc",NA,"57d6b1718e00270001b430cc_sheep","sheep",43,594110,1019.6,126,"mirror","dist",0,5,"CR","dist5"
3,"detect-sheep","06/03/2023","sheep","57d6b1718e00270001b430cc",NA,"57d6b1718e00270001b430cc_sheep","sheep",44,600955,1357,172,"mirror","dist",0,2,"CR","dist4"
3,"detect-sheep","06/03/2023","sheep","57d6b1718e00270001b430cc",NA,"57d6b1718e00270001b430cc_sheep","sheep",45,607832,1199.3,266,"chase","sheep",1,5,"Hit","sheep"
3,"detect-sheep","06/03/2023","sheep","57d6b1718e00270001b430cc",NA,"57d6b1718e00270001b430cc_sheep","sheep",46,614719,1287.5,32,"chase","wolf",0,3,"Ms","wolf"
3,"detect-sheep","06/03/2023","sheep","57d6b1718e00270001b430cc",NA,"57d6b1718e00270001b430cc_sheep","sheep",47,627149,1512.6,160,"mirror","sheep",1,5,"FA","sheep"
3,"detect-sheep","06/03/2023","sheep","57d6b1718e00270001b430cc",NA,"57d6b1718e00270001b430cc_sheep","sheep",48,639382,6982.7,187,"chase","dist",0,1,"Ms","dist4"
3,"detect-sheep","06/03/2023","sheep","57d6b1718e00270001b430cc",NA,"57d6b1718e00270001b430cc_sheep","sheep",49,647128,2514.7,10,"mirror","dist",0,1,"CR","dist1"
3,"detect-sheep","06/03/2023","sheep","57d6b1718e00270001b430cc",NA,"57d6b1718e00270001b430cc_sheep","sheep",50,653455,1039.1,262,"mirror","dist",0,2,"CR","dist5"
3,"detect-sheep","06/03/2023","sheep","57d6b1718e00270001b430cc",NA,"57d6b1718e00270001b430cc_sheep","sheep",51,660202,1335.3,169,"chase","sheep",1,5,"Hit","sheep"
3,"detect-sheep","06/03/2023","sheep","57d6b1718e00270001b430cc",NA,"57d6b1718e00270001b430cc_sheep","sheep",52,666305,835.1999999,20,"mirror","dist",0,2,"CR","dist6"
3,"detect-sheep","06/03/2023","sheep","57d6b1718e00270001b430cc",NA,"57d6b1718e00270001b430cc_sheep","sheep",53,672483,971.8,84,"mirror","dist",0,2,"CR","dist4"
3,"detect-sheep","06/03/2023","sheep","57d6b1718e00270001b430cc",NA,"57d6b1718e00270001b430cc_sheep","sheep",54,678968,1087.9,161,"chase","sheep",1,5,"Hit","sheep"
3,"detect-sheep","06/03/2023","sheep","57d6b1718e00270001b430cc",NA,"57d6b1718e00270001b430cc_sheep","sheep",55,686451,2139,158,"chase","sheep",1,4,"Hit","sheep"
3,"detect-sheep","06/03/2023","sheep","57d6b1718e00270001b430cc",NA,"57d6b1718e00270001b430cc_sheep","sheep",56,693966,2213.7,246,"mirror","dist",0,3,"CR","dist5"
3,"detect-sheep","06/03/2023","sheep","57d6b1718e00270001b430cc",NA,"57d6b1718e00270001b430cc_sheep","sheep",57,700563,1151.6,116,"chase","sheep",1,5,"Hit","sheep"
3,"detect-sheep","06/03/2023","sheep","57d6b1718e00270001b430cc",NA,"57d6b1718e00270001b430cc_sheep","sheep",58,709559,3663,51,"chase","dist",0,2,"Ms","dist5"
3,"detect-sheep","06/03/2023","sheep","57d6b1718e00270001b430cc",NA,"57d6b1718e00270001b430cc_sheep","sheep",59,715847,1140.4,260,"mirror","dist",0,2,"CR","dist2"
3,"detect-sheep","06/03/2023","sheep","57d6b1718e00270001b430cc",NA,"57d6b1718e00270001b430cc_sheep","sheep",60,722400,1353.1,24,"mirror","dist",0,2,"CR","dist2"
3,"detect-sheep","06/03/2023","sheep","57d6b1718e00270001b430cc",NA,"57d6b1718e00270001b430cc_sheep","sheep",61,732005,3364,127,"mirror","dist",0,2,"CR","dist3"
3,"detect-sheep","06/03/2023","sheep","57d6b1718e00270001b430cc",NA,"57d6b1718e00270001b430cc_sheep","sheep",62,738509,880.9,178,"chase","sheep",1,3,"Hit","sheep"
3,"detect-sheep","06/03/2023","sheep","57d6b1718e00270001b430cc",NA,"57d6b1718e00270001b430cc_sheep","sheep",63,744819,1033.9,77,"mirror","dist",0,1,"CR","dist3"
3,"detect-sheep","06/03/2023","sheep","57d6b1718e00270001b430cc",NA,"57d6b1718e00270001b430cc_sheep","sheep",64,751703,1356,162,"mirror","sheep",1,4,"FA","sheep"
3,"detect-sheep","06/03/2023","sheep","57d6b1718e00270001b430cc",NA,"57d6b1718e00270001b430cc_sheep","sheep",65,757951,1011.9,52,"chase","dist",0,2,"Ms","dist1"
3,"detect-sheep","06/03/2023","sheep","57d6b1718e00270001b430cc",NA,"57d6b1718e00270001b430cc_sheep","sheep",66,764633,1233.8,166,"mirror","dist",0,5,"CR","dist1"
3,"detect-sheep","06/03/2023","sheep","57d6b1718e00270001b430cc",NA,"57d6b1718e00270001b430cc_sheep","sheep",67,771737,1745.9,15,"chase","dist",0,2,"Ms","dist1"
3,"detect-sheep","06/03/2023","sheep","57d6b1718e00270001b430cc",NA,"57d6b1718e00270001b430cc_sheep","sheep",68,780664,3137.2,298,"mirror","dist",0,2,"CR","dist2"
3,"detect-sheep","06/03/2023","sheep","57d6b1718e00270001b430cc",NA,"57d6b1718e00270001b430cc_sheep","sheep",69,789367,2161.2,242,"mirror","dist",0,3,"CR","dist6"
3,"detect-sheep","06/03/2023","sheep","57d6b1718e00270001b430cc",NA,"57d6b1718e00270001b430cc_sheep","sheep",70,798625,3733.9,135,"chase","dist",0,3,"Ms","dist5"
3,"detect-sheep","06/03/2023","sheep","57d6b1718e00270001b430cc",NA,"57d6b1718e00270001b430cc_sheep","sheep",71,814716,1474.3,38,"mirror","dist",0,2,"CR","dist6"
3,"detect-sheep","06/03/2023","sheep","57d6b1718e00270001b430cc",NA,"57d6b1718e00270001b430cc_sheep","sheep",72,822066,2015.3,96,"chase","dist",0,3,"Ms","dist2"
3,"detect-sheep","06/03/2023","sheep","57d6b1718e00270001b430cc",NA,"57d6b1718e00270001b430cc_sheep","sheep",73,828203,937.8,149,"chase","dist",0,5,"Ms","dist1"
3,"detect-sheep","06/03/2023","sheep","57d6b1718e00270001b430cc",NA,"57d6b1718e00270001b430cc_sheep","sheep",74,838102,3567.5,293,"chase","wolf",0,5,"Ms","wolf"
3,"detect-sheep","06/03/2023","sheep","57d6b1718e00270001b430cc",NA,"57d6b1718e00270001b430cc_sheep","sheep",75,845507,1590.8,278,"mirror","dist",0,5,"CR","dist3"
3,"detect-sheep","06/03/2023","sheep","57d6b1718e00270001b430cc",NA,"57d6b1718e00270001b430cc_sheep","sheep",76,851608,1007.8,140,"mirror","dist",0,2,"CR","dist2"
3,"detect-sheep","06/03/2023","sheep","57d6b1718e00270001b430cc",NA,"57d6b1718e00270001b430cc_sheep","sheep",77,858532,1594.9,151,"mirror","dist",0,5,"CR","dist2"
3,"detect-sheep","06/03/2023","sheep","57d6b1718e00270001b430cc",NA,"57d6b1718e00270001b430cc_sheep","sheep",78,865437,1537.9,53,"chase","dist",0,2,"Ms","dist3"
3,"detect-sheep","06/03/2023","sheep","57d6b1718e00270001b430cc",NA,"57d6b1718e00270001b430cc_sheep","sheep",79,872592,1310.6,177,"chase","wolf",0,4,"Ms","wolf"
3,"detect-sheep","06/03/2023","sheep","57d6b1718e00270001b430cc",NA,"57d6b1718e00270001b430cc_sheep","sheep",80,878620,885.4000001,121,"mirror","dist",0,2,"CR","dist2"
3,"detect-sheep","06/03/2023","sheep","57d6b1718e00270001b430cc",NA,"57d6b1718e00270001b430cc_sheep","sheep",81,885592,1648.6,65,"mirror","dist",0,5,"CR","dist4"
3,"detect-sheep","06/03/2023","sheep","57d6b1718e00270001b430cc",NA,"57d6b1718e00270001b430cc_sheep","sheep",82,891799,1020.2,17,"mirror","dist",0,2,"CR","dist1"
3,"detect-sheep","06/03/2023","sheep","57d6b1718e00270001b430cc",NA,"57d6b1718e00270001b430cc_sheep","sheep",83,898341,1281,130,"mirror","dist",0,3,"CR","dist6"
3,"detect-sheep","06/03/2023","sheep","57d6b1718e00270001b430cc",NA,"57d6b1718e00270001b430cc_sheep","sheep",84,904588,935.6,232,"chase","sheep",1,4,"Hit","sheep"
3,"detect-sheep","06/03/2023","sheep","57d6b1718e00270001b430cc",NA,"57d6b1718e00270001b430cc_sheep","sheep",85,911483,1656.2,287,"mirror","dist",0,5,"CR","dist2"
3,"detect-sheep","06/03/2023","sheep","57d6b1718e00270001b430cc",NA,"57d6b1718e00270001b430cc_sheep","sheep",86,918055,1159.7,274,"chase","sheep",1,4,"Hit","sheep"
3,"detect-sheep","06/03/2023","sheep","57d6b1718e00270001b430cc",NA,"57d6b1718e00270001b430cc_sheep","sheep",87,925797,1436.2,234,"chase","dist",0,4,"Ms","dist1"
3,"detect-sheep","06/03/2023","sheep","57d6b1718e00270001b430cc",NA,"57d6b1718e00270001b430cc_sheep","sheep",88,932291,1181.1,235,"chase","sheep",1,5,"Hit","sheep"
3,"detect-sheep","06/03/2023","sheep","57d6b1718e00270001b430cc",NA,"57d6b1718e00270001b430cc_sheep","sheep",89,941624,2207.7,72,"chase","dist",0,4,"Ms","dist4"
3,"detect-sheep","06/03/2023","sheep","57d6b1718e00270001b430cc",NA,"57d6b1718e00270001b430cc_sheep","sheep",90,952581,5730.3,150,"chase","dist",0,2,"Ms","dist1"
3,"detect-sheep","06/03/2023","sheep","57d6b1718e00270001b430cc",NA,"57d6b1718e00270001b430cc_sheep","sheep",91,959014,1082.3,131,"chase","sheep",1,5,"Hit","sheep"
3,"detect-sheep","06/03/2023","sheep","57d6b1718e00270001b430cc",NA,"57d6b1718e00270001b430cc_sheep","sheep",92,971204,6605.9,7,"chase","sheep",1,2,"Hit","sheep"
3,"detect-sheep","06/03/2023","sheep","57d6b1718e00270001b430cc",NA,"57d6b1718e00270001b430cc_sheep","sheep",93,979232,2660.1,87,"chase","dist",0,5,"Ms","dist4"
3,"detect-sheep","06/03/2023","sheep","57d6b1718e00270001b430cc",NA,"57d6b1718e00270001b430cc_sheep","sheep",94,985770,1178.7,73,"chase","sheep",1,5,"Hit","sheep"
3,"detect-sheep","06/03/2023","sheep","57d6b1718e00270001b430cc",NA,"57d6b1718e00270001b430cc_sheep","sheep",95,993656,2215.8,145,"chase","sheep",1,4,"Hit","sheep"
3,"detect-sheep","06/03/2023","sheep","57d6b1718e00270001b430cc",NA,"57d6b1718e00270001b430cc_sheep","sheep",96,1000965,1492.2,182,"chase","sheep",1,3,"Hit","sheep"
3,"detect-sheep","06/03/2023","sheep","57d6b1718e00270001b430cc",NA,"57d6b1718e00270001b430cc_sheep","sheep",97,1025695,19279.8,173,"chase","dist",0,2,"Ms","dist4"
3,"detect-sheep","06/03/2023","sheep","57d6b1718e00270001b430cc",NA,"57d6b1718e00270001b430cc_sheep","sheep",98,1033768,2433.5,154,"chase","dist",0,3,"Ms","dist6"
3,"detect-sheep","06/03/2023","sheep","57d6b1718e00270001b430cc",NA,"57d6b1718e00270001b430cc_sheep","sheep",99,1040059,1181.9,155,"chase","sheep",1,2,"Hit","sheep"
3,"detect-sheep","06/03/2023","sheep","57d6b1718e00270001b430cc",NA,"57d6b1718e00270001b430cc_sheep","sheep",100,1048327,2958,25,"chase","sheep",1,3,"Hit","sheep"
3,"detect-sheep","06/03/2023","sheep","57d810f1813eb30001825b65",NA,"57d810f1813eb30001825b65_sheep","sheep",1,224334,2208.9,117,"mirror","dist",0,5,"CR","dist4"
3,"detect-sheep","06/03/2023","sheep","57d810f1813eb30001825b65",NA,"57d810f1813eb30001825b65_sheep","sheep",2,230192,1044.2,135,"chase","sheep",1,5,"Hit","sheep"
3,"detect-sheep","06/03/2023","sheep","57d810f1813eb30001825b65",NA,"57d810f1813eb30001825b65_sheep","sheep",3,235807,769.3000001,64,"chase","dist",0,5,"Ms","dist2"
3,"detect-sheep","06/03/2023","sheep","57d810f1813eb30001825b65",NA,"57d810f1813eb30001825b65_sheep","sheep",4,241629,1105.5,234,"chase","dist",0,5,"Ms","dist2"
3,"detect-sheep","06/03/2023","sheep","57d810f1813eb30001825b65",NA,"57d810f1813eb30001825b65_sheep","sheep",5,247325,912.9000001,75,"chase","sheep",1,5,"Hit","sheep"
3,"detect-sheep","06/03/2023","sheep","57d810f1813eb30001825b65",NA,"57d810f1813eb30001825b65_sheep","sheep",6,252811,677.6,84,"chase","sheep",1,5,"Hit","sheep"
3,"detect-sheep","06/03/2023","sheep","57d810f1813eb30001825b65",NA,"57d810f1813eb30001825b65_sheep","sheep",7,259088,1426,42,"chase","sheep",1,5,"Hit","sheep"
3,"detect-sheep","06/03/2023","sheep","57d810f1813eb30001825b65",NA,"57d810f1813eb30001825b65_sheep","sheep",8,265741,1127.7,53,"chase","sheep",1,5,"Hit","sheep"
3,"detect-sheep","06/03/2023","sheep","57d810f1813eb30001825b65",NA,"57d810f1813eb30001825b65_sheep","sheep",9,271574,940,161,"chase","sheep",1,5,"Hit","sheep"
3,"detect-sheep","06/03/2023","sheep","57d810f1813eb30001825b65",NA,"57d810f1813eb30001825b65_sheep","sheep",10,277725,1116.6,58,"mirror","dist",0,5,"CR","dist4"
3,"detect-sheep","06/03/2023","sheep","57d810f1813eb30001825b65",NA,"57d810f1813eb30001825b65_sheep","sheep",11,284759,2101.8,55,"mirror","dist",0,5,"CR","dist5"
3,"detect-sheep","06/03/2023","sheep","57d810f1813eb30001825b65",NA,"57d810f1813eb30001825b65_sheep","sheep",12,290899,837,146,"mirror","sheep",1,4,"FA","sheep"
3,"detect-sheep","06/03/2023","sheep","57d810f1813eb30001825b65",NA,"57d810f1813eb30001825b65_sheep","sheep",13,298877,1647.1,152,"mirror","wolf",0,1,"CR","wolf"
3,"detect-sheep","06/03/2023","sheep","57d810f1813eb30001825b65",NA,"57d810f1813eb30001825b65_sheep","sheep",14,305124,1280.1,136,"mirror","dist",0,2,"CR","dist1"
3,"detect-sheep","06/03/2023","sheep","57d810f1813eb30001825b65",NA,"57d810f1813eb30001825b65_sheep","sheep",15,311010,1174.5,220,"mirror","dist",0,2,"CR","dist4"
3,"detect-sheep","06/03/2023","sheep","57d810f1813eb30001825b65",NA,"57d810f1813eb30001825b65_sheep","sheep",16,316881,1091,192,"chase","sheep",1,5,"Hit","sheep"
3,"detect-sheep","06/03/2023","sheep","57d810f1813eb30001825b65",NA,"57d810f1813eb30001825b65_sheep","sheep",17,322672,1095.3,214,"mirror","dist",0,2,"CR","dist1"
3,"detect-sheep","06/03/2023","sheep","57d810f1813eb30001825b65",NA,"57d810f1813eb30001825b65_sheep","sheep",18,328408,977.1,134,"mirror","dist",0,5,"CR","dist1"
3,"detect-sheep","06/03/2023","sheep","57d810f1813eb30001825b65",NA,"57d810f1813eb30001825b65_sheep","sheep",19,334581,1436,130,"mirror","sheep",1,2,"FA","sheep"
3,"detect-sheep","06/03/2023","sheep","57d810f1813eb30001825b65",NA,"57d810f1813eb30001825b65_sheep","sheep",20,340253,971.3000001,98,"chase","sheep",1,5,"Hit","sheep"
3,"detect-sheep","06/03/2023","sheep","57d810f1813eb30001825b65",NA,"57d810f1813eb30001825b65_sheep","sheep",21,345881,1017.5,67,"mirror","dist",0,2,"CR","dist3"
3,"detect-sheep","06/03/2023","sheep","57d810f1813eb30001825b65",NA,"57d810f1813eb30001825b65_sheep","sheep",22,351455,961,163,"chase","sheep",1,5,"Hit","sheep"
3,"detect-sheep","06/03/2023","sheep","57d810f1813eb30001825b65",NA,"57d810f1813eb30001825b65_sheep","sheep",23,358571,874.6,61,"chase","wolf",0,4,"Ms","wolf"
3,"detect-sheep","06/03/2023","sheep","57d810f1813eb30001825b65",NA,"57d810f1813eb30001825b65_sheep","sheep",24,364288,710.6,147,"chase","sheep",1,5,"Hit","sheep"
3,"detect-sheep","06/03/2023","sheep","57d810f1813eb30001825b65",NA,"57d810f1813eb30001825b65_sheep","sheep",25,370063,1090.3,43,"mirror","dist",0,2,"CR","dist1"
3,"detect-sheep","06/03/2023","sheep","57d810f1813eb30001825b65",NA,"57d810f1813eb30001825b65_sheep","sheep",26,375786,1042.1,56,"chase","sheep",1,5,"Hit","sheep"
3,"detect-sheep","06/03/2023","sheep","57d810f1813eb30001825b65",NA,"57d810f1813eb30001825b65_sheep","sheep",27,383471,2869.2,184,"chase","sheep",1,5,"Hit","sheep"
3,"detect-sheep","06/03/2023","sheep","57d810f1813eb30001825b65",NA,"57d810f1813eb30001825b65_sheep","sheep",28,390931,1378,226,"chase","sheep",1,5,"Hit","sheep"
3,"detect-sheep","06/03/2023","sheep","57d810f1813eb30001825b65",NA,"57d810f1813eb30001825b65_sheep","sheep",29,396453,888,209,"chase","sheep",1,5,"Hit","sheep"
3,"detect-sheep","06/03/2023","sheep","57d810f1813eb30001825b65",NA,"57d810f1813eb30001825b65_sheep","sheep",30,402201,923.9,94,"chase","sheep",1,5,"Hit","sheep"
3,"detect-sheep","06/03/2023","sheep","57d810f1813eb30001825b65",NA,"57d810f1813eb30001825b65_sheep","sheep",31,408326,1317.6,97,"chase","sheep",1,5,"Hit","sheep"
3,"detect-sheep","06/03/2023","sheep","57d810f1813eb30001825b65",NA,"57d810f1813eb30001825b65_sheep","sheep",32,413745,759.9,68,"chase","sheep",1,5,"Hit","sheep"
3,"detect-sheep","06/03/2023","sheep","57d810f1813eb30001825b65",NA,"57d810f1813eb30001825b65_sheep","sheep",33,419577,1232.3,208,"mirror","dist",0,2,"CR","dist1"
3,"detect-sheep","06/03/2023","sheep","57d810f1813eb30001825b65",NA,"57d810f1813eb30001825b65_sheep","sheep",34,425524,879.5,225,"mirror","dist",0,3,"CR","dist3"
3,"detect-sheep","06/03/2023","sheep","57d810f1813eb30001825b65",NA,"57d810f1813eb30001825b65_sheep","sheep",35,431188,857,24,"chase","sheep",1,5,"Hit","sheep"
3,"detect-sheep","06/03/2023","sheep","57d810f1813eb30001825b65",NA,"57d810f1813eb30001825b65_sheep","sheep",36,436710,855.5,193,"chase","sheep",1,5,"Hit","sheep"
3,"detect-sheep","06/03/2023","sheep","57d810f1813eb30001825b65",NA,"57d810f1813eb30001825b65_sheep","sheep",37,442547,1025.1,30,"chase","sheep",1,5,"Hit","sheep"
3,"detect-sheep","06/03/2023","sheep","57d810f1813eb30001825b65",NA,"57d810f1813eb30001825b65_sheep","sheep",38,448097,920.7,215,"chase","sheep",1,5,"Hit","sheep"
3,"detect-sheep","06/03/2023","sheep","57d810f1813eb30001825b65",NA,"57d810f1813eb30001825b65_sheep","sheep",39,455116,2131.2,41,"mirror","dist",0,2,"CR","dist1"
3,"detect-sheep","06/03/2023","sheep","57d810f1813eb30001825b65",NA,"57d810f1813eb30001825b65_sheep","sheep",40,461072,1106.4,219,"chase","sheep",1,4,"Hit","sheep"
3,"detect-sheep","06/03/2023","sheep","57d810f1813eb30001825b65",NA,"57d810f1813eb30001825b65_sheep","sheep",41,466892,1180.2,210,"chase","sheep",1,5,"Hit","sheep"
3,"detect-sheep","06/03/2023","sheep","57d810f1813eb30001825b65",NA,"57d810f1813eb30001825b65_sheep","sheep",42,472522,1019.4,227,"chase","sheep",1,5,"Hit","sheep"
3,"detect-sheep","06/03/2023","sheep","57d810f1813eb30001825b65",NA,"57d810f1813eb30001825b65_sheep","sheep",43,478163,1082.2,106,"chase","sheep",1,5,"Hit","sheep"
3,"detect-sheep","06/03/2023","sheep","57d810f1813eb30001825b65",NA,"57d810f1813eb30001825b65_sheep","sheep",44,483831,1065,145,"mirror","dist",0,2,"CR","dist3"
3,"detect-sheep","06/03/2023","sheep","57d810f1813eb30001825b65",NA,"57d810f1813eb30001825b65_sheep","sheep",45,489584,1198.3,213,"chase","dist",0,2,"Ms","dist4"
3,"detect-sheep","06/03/2023","sheep","57d810f1813eb30001825b65",NA,"57d810f1813eb30001825b65_sheep","sheep",46,495212,1054.5,212,"chase","sheep",1,5,"Hit","sheep"
3,"detect-sheep","06/03/2023","sheep","57d810f1813eb30001825b65",NA,"57d810f1813eb30001825b65_sheep","sheep",47,500483,742.8000001,143,"mirror","dist",0,2,"CR","dist3"
3,"detect-sheep","06/03/2023","sheep","57d810f1813eb30001825b65",NA,"57d810f1813eb30001825b65_sheep","sheep",48,505829,780,224,"mirror","dist",0,2,"CR","dist1"
3,"detect-sheep","06/03/2023","sheep","57d810f1813eb30001825b65",NA,"57d810f1813eb30001825b65_sheep","sheep",49,511400,1023.1,175,"mirror","dist",0,2,"CR","dist6"
3,"detect-sheep","06/03/2023","sheep","57d810f1813eb30001825b65",NA,"57d810f1813eb30001825b65_sheep","sheep",50,517224,1240.3,205,"mirror","dist",0,5,"CR","dist6"
3,"detect-sheep","06/03/2023","sheep","57d810f1813eb30001825b65",NA,"57d810f1813eb30001825b65_sheep","sheep",51,522726,958.1999999,125,"mirror","dist",0,2,"CR","dist3"
3,"detect-sheep","06/03/2023","sheep","57d810f1813eb30001825b65",NA,"57d810f1813eb30001825b65_sheep","sheep",52,528701,1387.5,77,"chase","sheep",1,3,"Hit","sheep"
3,"detect-sheep","06/03/2023","sheep","57d810f1813eb30001825b65",NA,"57d810f1813eb30001825b65_sheep","sheep",53,534257,1004.1,81,"mirror","sheep",1,2,"FA","sheep"
3,"detect-sheep","06/03/2023","sheep","57d810f1813eb30001825b65",NA,"57d810f1813eb30001825b65_sheep","sheep",54,542986,1077.2,76,"mirror","dist",0,2,"CR","dist2"
3,"detect-sheep","06/03/2023","sheep","57d810f1813eb30001825b65",NA,"57d810f1813eb30001825b65_sheep","sheep",55,549481,1824.9,191,"chase","dist",0,2,"Ms","dist6"
3,"detect-sheep","06/03/2023","sheep","57d810f1813eb30001825b65",NA,"57d810f1813eb30001825b65_sheep","sheep",56,555092,957.4,229,"mirror","dist",0,2,"CR","dist4"
3,"detect-sheep","06/03/2023","sheep","57d810f1813eb30001825b65",NA,"57d810f1813eb30001825b65_sheep","sheep",57,560400,757.3000001,120,"chase","dist",0,2,"Ms","dist6"
3,"detect-sheep","06/03/2023","sheep","57d810f1813eb30001825b65",NA,"57d810f1813eb30001825b65_sheep","sheep",58,565888,904.5,69,"mirror","dist",0,2,"CR","dist3"
3,"detect-sheep","06/03/2023","sheep","57d810f1813eb30001825b65",NA,"57d810f1813eb30001825b65_sheep","sheep",59,572558,2101.1,126,"mirror","wolf",0,2,"CR","wolf"
3,"detect-sheep","06/03/2023","sheep","57d810f1813eb30001825b65",NA,"57d810f1813eb30001825b65_sheep","sheep",60,578333,995.0999999,221,"chase","sheep",1,5,"Hit","sheep"
3,"detect-sheep","06/03/2023","sheep","57d810f1813eb30001825b65",NA,"57d810f1813eb30001825b65_sheep","sheep",61,585057,2132,118,"mirror","dist",0,2,"CR","dist6"
3,"detect-sheep","06/03/2023","sheep","57d810f1813eb30001825b65",NA,"57d810f1813eb30001825b65_sheep","sheep",62,590889,1190.2,223,"chase","sheep",1,5,"Hit","sheep"
3,"detect-sheep","06/03/2023","sheep","57d810f1813eb30001825b65",NA,"57d810f1813eb30001825b65_sheep","sheep",63,597176,1573.9,154,"chase","sheep",1,5,"Hit","sheep"
3,"detect-sheep","06/03/2023","sheep","57d810f1813eb30001825b65",NA,"57d810f1813eb30001825b65_sheep","sheep",64,603103,1104.8,22,"mirror","dist",0,3,"CR","dist1"
3,"detect-sheep","06/03/2023","sheep","57d810f1813eb30001825b65",NA,"57d810f1813eb30001825b65_sheep","sheep",65,608929,1277.4,57,"mirror","dist",0,2,"CR","dist3"
3,"detect-sheep","06/03/2023","sheep","57d810f1813eb30001825b65",NA,"57d810f1813eb30001825b65_sheep","sheep",66,614925,1356.1,150,"mirror","wolf",0,3,"CR","wolf"
3,"detect-sheep","06/03/2023","sheep","57d810f1813eb30001825b65",NA,"57d810f1813eb30001825b65_sheep","sheep",67,621088,1605.3,27,"mirror","dist",0,2,"CR","dist6"
3,"detect-sheep","06/03/2023","sheep","57d810f1813eb30001825b65",NA,"57d810f1813eb30001825b65_sheep","sheep",68,628457,837.6,217,"mirror","dist",0,2,"CR","dist3"
3,"detect-sheep","06/03/2023","sheep","57d810f1813eb30001825b65",NA,"57d810f1813eb30001825b65_sheep","sheep",69,633929,720.4,171,"mirror","dist",0,2,"CR","dist6"
3,"detect-sheep","06/03/2023","sheep","57d810f1813eb30001825b65",NA,"57d810f1813eb30001825b65_sheep","sheep",70,640134,1421.3,194,"chase","dist",0,2,"Ms","dist5"
3,"detect-sheep","06/03/2023","sheep","57d810f1813eb30001825b65",NA,"57d810f1813eb30001825b65_sheep","sheep",71,645720,980.9000001,280,"chase","sheep",1,5,"Hit","sheep"
3,"detect-sheep","06/03/2023","sheep","57d810f1813eb30001825b65",NA,"57d810f1813eb30001825b65_sheep","sheep",72,651601,1340.9,239,"mirror","dist",0,2,"CR","dist1"
3,"detect-sheep","06/03/2023","sheep","57d810f1813eb30001825b65",NA,"57d810f1813eb30001825b65_sheep","sheep",73,657743,1338.3,266,"chase","sheep",1,5,"Hit","sheep"
3,"detect-sheep","06/03/2023","sheep","57d810f1813eb30001825b65",NA,"57d810f1813eb30001825b65_sheep","sheep",74,664171,1644,195,"chase","sheep",1,5,"Hit","sheep"
3,"detect-sheep","06/03/2023","sheep","57d810f1813eb30001825b65",NA,"57d810f1813eb30001825b65_sheep","sheep",75,670234,1211.9,249,"chase","sheep",1,2,"Hit","sheep"
3,"detect-sheep","06/03/2023","sheep","57d810f1813eb30001825b65",NA,"57d810f1813eb30001825b65_sheep","sheep",76,675778,969.4,132,"mirror","sheep",1,2,"FA","sheep"
3,"detect-sheep","06/03/2023","sheep","57d810f1813eb30001825b65",NA,"57d810f1813eb30001825b65_sheep","sheep",77,681509,956.5,248,"mirror","dist",0,2,"CR","dist5"
3,"detect-sheep","06/03/2023","sheep","57d810f1813eb30001825b65",NA,"57d810f1813eb30001825b65_sheep","sheep",78,687888,973.7,66,"mirror","wolf",0,3,"CR","wolf"
3,"detect-sheep","06/03/2023","sheep","57d810f1813eb30001825b65",NA,"57d810f1813eb30001825b65_sheep","sheep",79,693639,1200.1,140,"mirror","dist",0,2,"CR","dist1"
3,"detect-sheep","06/03/2023","sheep","57d810f1813eb30001825b65",NA,"57d810f1813eb30001825b65_sheep","sheep",80,699315,912.9000001,31,"chase","sheep",1,5,"Hit","sheep"
3,"detect-sheep","06/03/2023","sheep","57d810f1813eb30001825b65",NA,"57d810f1813eb30001825b65_sheep","sheep",81,705317,1391.1,178,"mirror","dist",0,2,"CR","dist2"
3,"detect-sheep","06/03/2023","sheep","57d810f1813eb30001825b65",NA,"57d810f1813eb30001825b65_sheep","sheep",82,710880,903.1,196,"mirror","dist",0,2,"CR","dist1"
3,"detect-sheep","06/03/2023","sheep","57d810f1813eb30001825b65",NA,"57d810f1813eb30001825b65_sheep","sheep",83,716606,1153.3,199,"mirror","dist",0,2,"CR","dist6"
3,"detect-sheep","06/03/2023","sheep","57d810f1813eb30001825b65",NA,"57d810f1813eb30001825b65_sheep","sheep",84,722162,876.1,155,"mirror","dist",0,2,"CR","dist4"
3,"detect-sheep","06/03/2023","sheep","57d810f1813eb30001825b65",NA,"57d810f1813eb30001825b65_sheep","sheep",85,727892,1069.9,39,"mirror","sheep",1,2,"FA","sheep"
3,"detect-sheep","06/03/2023","sheep","57d810f1813eb30001825b65",NA,"57d810f1813eb30001825b65_sheep","sheep",86,733815,1095.6,197,"chase","sheep",1,5,"Hit","sheep"
3,"detect-sheep","06/03/2023","sheep","57d810f1813eb30001825b65",NA,"57d810f1813eb30001825b65_sheep","sheep",87,739767,1155.7,166,"mirror","dist",0,2,"CR","dist1"
3,"detect-sheep","06/03/2023","sheep","57d810f1813eb30001825b65",NA,"57d810f1813eb30001825b65_sheep","sheep",88,745494,916.5,131,"chase","sheep",1,5,"Hit","sheep"
3,"detect-sheep","06/03/2023","sheep","57d810f1813eb30001825b65",NA,"57d810f1813eb30001825b65_sheep","sheep",89,751115,943.6,78,"chase","sheep",1,2,"Hit","sheep"
3,"detect-sheep","06/03/2023","sheep","57d810f1813eb30001825b65",NA,"57d810f1813eb30001825b65_sheep","sheep",90,756809,1095.5,244,"chase","dist",0,2,"Ms","dist2"
3,"detect-sheep","06/03/2023","sheep","57d810f1813eb30001825b65",NA,"57d810f1813eb30001825b65_sheep","sheep",91,763518,2012.5,241,"chase","wolf",0,2,"Ms","wolf"
3,"detect-sheep","06/03/2023","sheep","57d810f1813eb30001825b65",NA,"57d810f1813eb30001825b65_sheep","sheep",92,769478,1159.9,80,"chase","dist",0,2,"Ms","dist6"
3,"detect-sheep","06/03/2023","sheep","57d810f1813eb30001825b65",NA,"57d810f1813eb30001825b65_sheep","sheep",93,775897,1640.4,160,"mirror","dist",0,2,"CR","dist5"
3,"detect-sheep","06/03/2023","sheep","57d810f1813eb30001825b65",NA,"57d810f1813eb30001825b65_sheep","sheep",94,781250,695.8,263,"mirror","dist",0,2,"CR","dist2"
3,"detect-sheep","06/03/2023","sheep","57d810f1813eb30001825b65",NA,"57d810f1813eb30001825b65_sheep","sheep",95,786955,961.9,110,"chase","sheep",1,2,"Hit","sheep"
3,"detect-sheep","06/03/2023","sheep","57d810f1813eb30001825b65",NA,"57d810f1813eb30001825b65_sheep","sheep",96,792456,895.4,156,"mirror","dist",0,2,"CR","dist3"
3,"detect-sheep","06/03/2023","sheep","57d810f1813eb30001825b65",NA,"57d810f1813eb30001825b65_sheep","sheep",97,798100,995.2,46,"mirror","sheep",1,2,"FA","sheep"
3,"detect-sheep","06/03/2023","sheep","57d810f1813eb30001825b65",NA,"57d810f1813eb30001825b65_sheep","sheep",98,808535,5640.7,129,"mirror","sheep",1,2,"FA","sheep"
3,"detect-sheep","06/03/2023","sheep","57d810f1813eb30001825b65",NA,"57d810f1813eb30001825b65_sheep","sheep",99,814163,919,185,"mirror","sheep",1,2,"FA","sheep"
3,"detect-sheep","06/03/2023","sheep","57d810f1813eb30001825b65",NA,"57d810f1813eb30001825b65_sheep","sheep",100,819842,998.8,99,"chase","sheep",1,5,"Hit","sheep"
3,"detect-sheep","06/03/2023","sheep","583492b3ef3ec1000175ee76",NA,"583492b3ef3ec1000175ee76_sheep","sheep",1,150262,823.4000001,134,"chase","sheep",1,5,"Hit","sheep"
3,"detect-sheep","06/03/2023","sheep","583492b3ef3ec1000175ee76",NA,"583492b3ef3ec1000175ee76_sheep","sheep",2,156894,1677.7,141,"chase","sheep",1,5,"Hit","sheep"
3,"detect-sheep","06/03/2023","sheep","583492b3ef3ec1000175ee76",NA,"583492b3ef3ec1000175ee76_sheep","sheep",3,162678,951.7,105,"chase","sheep",1,5,"Hit","sheep"
3,"detect-sheep","06/03/2023","sheep","583492b3ef3ec1000175ee76",NA,"583492b3ef3ec1000175ee76_sheep","sheep",4,168950,1098.5,95,"chase","sheep",1,4,"Hit","sheep"
3,"detect-sheep","06/03/2023","sheep","583492b3ef3ec1000175ee76",NA,"583492b3ef3ec1000175ee76_sheep","sheep",5,174838,801.7,46,"chase","sheep",1,4,"Hit","sheep"
3,"detect-sheep","06/03/2023","sheep","583492b3ef3ec1000175ee76",NA,"583492b3ef3ec1000175ee76_sheep","sheep",6,181257,1040.4,150,"chase","sheep",1,5,"Hit","sheep"
3,"detect-sheep","06/03/2023","sheep","583492b3ef3ec1000175ee76",NA,"583492b3ef3ec1000175ee76_sheep","sheep",7,187180,1019.1,128,"chase","sheep",1,5,"Hit","sheep"
3,"detect-sheep","06/03/2023","sheep","583492b3ef3ec1000175ee76",NA,"583492b3ef3ec1000175ee76_sheep","sheep",8,192894,854.4,17,"chase","sheep",1,5,"Hit","sheep"
3,"detect-sheep","06/03/2023","sheep","583492b3ef3ec1000175ee76",NA,"583492b3ef3ec1000175ee76_sheep","sheep",9,199191,1341,80,"chase","dist",0,5,"Ms","dist6"
3,"detect-sheep","06/03/2023","sheep","583492b3ef3ec1000175ee76",NA,"583492b3ef3ec1000175ee76_sheep","sheep",10,206568,1986.8,100,"chase","dist",0,4,"Ms","dist4"
3,"detect-sheep","06/03/2023","sheep","583492b3ef3ec1000175ee76",NA,"583492b3ef3ec1000175ee76_sheep","sheep",11,213625,1588.4,21,"chase","dist",0,2,"Ms","dist4"
3,"detect-sheep","06/03/2023","sheep","583492b3ef3ec1000175ee76",NA,"583492b3ef3ec1000175ee76_sheep","sheep",12,220028,1203.6,136,"chase","sheep",1,4,"Hit","sheep"
3,"detect-sheep","06/03/2023","sheep","583492b3ef3ec1000175ee76",NA,"583492b3ef3ec1000175ee76_sheep","sheep",13,226631,1381.4,197,"chase","sheep",1,4,"Hit","sheep"
3,"detect-sheep","06/03/2023","sheep","583492b3ef3ec1000175ee76",NA,"583492b3ef3ec1000175ee76_sheep","sheep",14,232386,759.1,216,"chase","sheep",1,4,"Hit","sheep"
3,"detect-sheep","06/03/2023","sheep","583492b3ef3ec1000175ee76",NA,"583492b3ef3ec1000175ee76_sheep","sheep",15,238041,915.5,181,"chase","sheep",1,5,"Hit","sheep"
3,"detect-sheep","06/03/2023","sheep","583492b3ef3ec1000175ee76",NA,"583492b3ef3ec1000175ee76_sheep","sheep",16,243964,833.6,227,"chase","dist",0,4,"Ms","dist6"
3,"detect-sheep","06/03/2023","sheep","583492b3ef3ec1000175ee76",NA,"583492b3ef3ec1000175ee76_sheep","sheep",17,249893,977.1,4,"chase","sheep",1,4,"Hit","sheep"
3,"detect-sheep","06/03/2023","sheep","583492b3ef3ec1000175ee76",NA,"583492b3ef3ec1000175ee76_sheep","sheep",18,257035,2181.6,165,"mirror","dist",0,4,"CR","dist4"
3,"detect-sheep","06/03/2023","sheep","583492b3ef3ec1000175ee76",NA,"583492b3ef3ec1000175ee76_sheep","sheep",19,263967,2025.1,37,"mirror","sheep",1,4,"FA","sheep"
3,"detect-sheep","06/03/2023","sheep","583492b3ef3ec1000175ee76",NA,"583492b3ef3ec1000175ee76_sheep","sheep",20,269994,741.8,154,"mirror","dist",0,3,"CR","dist4"
3,"detect-sheep","06/03/2023","sheep","583492b3ef3ec1000175ee76",NA,"583492b3ef3ec1000175ee76_sheep","sheep",21,276711,1670.5,63,"mirror","dist",0,1,"CR","dist4"
3,"detect-sheep","06/03/2023","sheep","583492b3ef3ec1000175ee76",NA,"583492b3ef3ec1000175ee76_sheep","sheep",22,283346,1027.7,171,"mirror","dist",0,3,"CR","dist6"
3,"detect-sheep","06/03/2023","sheep","583492b3ef3ec1000175ee76",NA,"583492b3ef3ec1000175ee76_sheep","sheep",23,289427,1259.4,228,"chase","dist",0,5,"Ms","dist6"
3,"detect-sheep","06/03/2023","sheep","583492b3ef3ec1000175ee76",NA,"583492b3ef3ec1000175ee76_sheep","sheep",24,296409,1203.2,192,"mirror","dist",0,2,"CR","dist5"
3,"detect-sheep","06/03/2023","sheep","583492b3ef3ec1000175ee76",NA,"583492b3ef3ec1000175ee76_sheep","sheep",25,302351,1085.8,22,"chase","sheep",1,5,"Hit","sheep"
3,"detect-sheep","06/03/2023","sheep","583492b3ef3ec1000175ee76",NA,"583492b3ef3ec1000175ee76_sheep","sheep",26,308046,929.4,164,"mirror","dist",0,5,"CR","dist5"
3,"detect-sheep","06/03/2023","sheep","583492b3ef3ec1000175ee76",NA,"583492b3ef3ec1000175ee76_sheep","sheep",27,313866,1008.7,185,"chase","sheep",1,5,"Hit","sheep"
3,"detect-sheep","06/03/2023","sheep","583492b3ef3ec1000175ee76",NA,"583492b3ef3ec1000175ee76_sheep","sheep",28,319500,850,157,"mirror","dist",0,3,"CR","dist6"
3,"detect-sheep","06/03/2023","sheep","583492b3ef3ec1000175ee76",NA,"583492b3ef3ec1000175ee76_sheep","sheep",29,325970,1147.2,199,"chase","dist",0,2,"Ms","dist3"
3,"detect-sheep","06/03/2023","sheep","583492b3ef3ec1000175ee76",NA,"583492b3ef3ec1000175ee76_sheep","sheep",30,332000,1033.5,226,"chase","sheep",1,5,"Hit","sheep"
3,"detect-sheep","06/03/2023","sheep","583492b3ef3ec1000175ee76",NA,"583492b3ef3ec1000175ee76_sheep","sheep",31,338010,1035.1,180,"mirror","dist",0,3,"CR","dist6"
3,"detect-sheep","06/03/2023","sheep","583492b3ef3ec1000175ee76",NA,"583492b3ef3ec1000175ee76_sheep","sheep",32,343791,981,16,"chase","sheep",1,5,"Hit","sheep"
3,"detect-sheep","06/03/2023","sheep","583492b3ef3ec1000175ee76",NA,"583492b3ef3ec1000175ee76_sheep","sheep",33,349806,1239.4,193,"chase","sheep",1,5,"Hit","sheep"
3,"detect-sheep","06/03/2023","sheep","583492b3ef3ec1000175ee76",NA,"583492b3ef3ec1000175ee76_sheep","sheep",34,355941,1185.1,178,"mirror","dist",0,3,"CR","dist6"
3,"detect-sheep","06/03/2023","sheep","583492b3ef3ec1000175ee76",NA,"583492b3ef3ec1000175ee76_sheep","sheep",35,363923,1238.7,217,"mirror","dist",0,1,"CR","dist5"
3,"detect-sheep","06/03/2023","sheep","583492b3ef3ec1000175ee76",NA,"583492b3ef3ec1000175ee76_sheep","sheep",36,370733,1838.9,162,"mirror","dist",0,1,"CR","dist2"
3,"detect-sheep","06/03/2023","sheep","583492b3ef3ec1000175ee76",NA,"583492b3ef3ec1000175ee76_sheep","sheep",37,377979,2119.9,60,"mirror","dist",0,2,"CR","dist3"
3,"detect-sheep","06/03/2023","sheep","583492b3ef3ec1000175ee76",NA,"583492b3ef3ec1000175ee76_sheep","sheep",38,383682,919.4,210,"chase","sheep",1,5,"Hit","sheep"
3,"detect-sheep","06/03/2023","sheep","583492b3ef3ec1000175ee76",NA,"583492b3ef3ec1000175ee76_sheep","sheep",39,389821,1326.2,196,"chase","sheep",1,5,"Hit","sheep"
3,"detect-sheep","06/03/2023","sheep","583492b3ef3ec1000175ee76",NA,"583492b3ef3ec1000175ee76_sheep","sheep",40,398132,1394.6,97,"mirror","dist",0,1,"CR","dist4"
3,"detect-sheep","06/03/2023","sheep","583492b3ef3ec1000175ee76",NA,"583492b3ef3ec1000175ee76_sheep","sheep",41,403919,910.1,29,"mirror","dist",0,2,"CR","dist4"
3,"detect-sheep","06/03/2023","sheep","583492b3ef3ec1000175ee76",NA,"583492b3ef3ec1000175ee76_sheep","sheep",42,410227,1361.3,43,"chase","sheep",1,5,"Hit","sheep"
3,"detect-sheep","06/03/2023","sheep","583492b3ef3ec1000175ee76",NA,"583492b3ef3ec1000175ee76_sheep","sheep",43,415953,974.7,155,"chase","sheep",1,5,"Hit","sheep"
3,"detect-sheep","06/03/2023","sheep","583492b3ef3ec1000175ee76",NA,"583492b3ef3ec1000175ee76_sheep","sheep",44,422812,2020.3,184,"mirror","dist",0,2,"CR","dist5"
3,"detect-sheep","06/03/2023","sheep","583492b3ef3ec1000175ee76",NA,"583492b3ef3ec1000175ee76_sheep","sheep",45,428440,778.5,247,"chase","sheep",1,5,"Hit","sheep"
3,"detect-sheep","06/03/2023","sheep","583492b3ef3ec1000175ee76",NA,"583492b3ef3ec1000175ee76_sheep","sheep",46,434361,813.5,236,"mirror","dist",0,2,"CR","dist4"
3,"detect-sheep","06/03/2023","sheep","583492b3ef3ec1000175ee76",NA,"583492b3ef3ec1000175ee76_sheep","sheep",47,440885,1802.5,257,"chase","dist",0,2,"Ms","dist4"
3,"detect-sheep","06/03/2023","sheep","583492b3ef3ec1000175ee76",NA,"583492b3ef3ec1000175ee76_sheep","sheep",48,447102,1504.7,158,"mirror","wolf",0,2,"CR","wolf"
3,"detect-sheep","06/03/2023","sheep","583492b3ef3ec1000175ee76",NA,"583492b3ef3ec1000175ee76_sheep","sheep",49,453901,1112.6,177,"mirror","sheep",1,2,"FA","sheep"
3,"detect-sheep","06/03/2023","sheep","583492b3ef3ec1000175ee76",NA,"583492b3ef3ec1000175ee76_sheep","sheep",50,462366,3697.8,70,"mirror","dist",0,2,"CR","dist2"
3,"detect-sheep","06/03/2023","sheep","583492b3ef3ec1000175ee76",NA,"583492b3ef3ec1000175ee76_sheep","sheep",51,468122,871.1,71,"chase","sheep",1,5,"Hit","sheep"
3,"detect-sheep","06/03/2023","sheep","583492b3ef3ec1000175ee76",NA,"583492b3ef3ec1000175ee76_sheep","sheep",52,474046,1059.9,258,"mirror","dist",0,2,"CR","dist1"
3,"detect-sheep","06/03/2023","sheep","583492b3ef3ec1000175ee76",NA,"583492b3ef3ec1000175ee76_sheep","sheep",53,479854,984.4000001,187,"chase","sheep",1,5,"Hit","sheep"
3,"detect-sheep","06/03/2023","sheep","583492b3ef3ec1000175ee76",NA,"583492b3ef3ec1000175ee76_sheep","sheep",54,486412,1578.3,83,"mirror","sheep",1,5,"FA","sheep"
3,"detect-sheep","06/03/2023","sheep","583492b3ef3ec1000175ee76",NA,"583492b3ef3ec1000175ee76_sheep","sheep",55,492346,797.8000001,25,"chase","sheep",1,5,"Hit","sheep"
3,"detect-sheep","06/03/2023","sheep","583492b3ef3ec1000175ee76",NA,"583492b3ef3ec1000175ee76_sheep","sheep",56,499942,1299.2,191,"chase","sheep",1,5,"Hit","sheep"
3,"detect-sheep","06/03/2023","sheep","583492b3ef3ec1000175ee76",NA,"583492b3ef3ec1000175ee76_sheep","sheep",57,505528,763.7,235,"chase","sheep",1,5,"Hit","sheep"
3,"detect-sheep","06/03/2023","sheep","583492b3ef3ec1000175ee76",NA,"583492b3ef3ec1000175ee76_sheep","sheep",58,512627,1846.4,8,"mirror","sheep",1,1,"FA","sheep"
3,"detect-sheep","06/03/2023","sheep","583492b3ef3ec1000175ee76",NA,"583492b3ef3ec1000175ee76_sheep","sheep",59,518441,884.3,27,"mirror","dist",0,5,"CR","dist6"
3,"detect-sheep","06/03/2023","sheep","583492b3ef3ec1000175ee76",NA,"583492b3ef3ec1000175ee76_sheep","sheep",60,524628,1029.9,79,"mirror","wolf",0,2,"CR","wolf"
3,"detect-sheep","06/03/2023","sheep","583492b3ef3ec1000175ee76",NA,"583492b3ef3ec1000175ee76_sheep","sheep",61,531222,1673.2,69,"chase","wolf",0,2,"Ms","wolf"
3,"detect-sheep","06/03/2023","sheep","583492b3ef3ec1000175ee76",NA,"583492b3ef3ec1000175ee76_sheep","sheep",62,537511,1034.7,72,"mirror","dist",0,2,"CR","dist1"
3,"detect-sheep","06/03/2023","sheep","583492b3ef3ec1000175ee76",NA,"583492b3ef3ec1000175ee76_sheep","sheep",63,543765,1328.9,214,"mirror","dist",0,2,"CR","dist5"
3,"detect-sheep","06/03/2023","sheep","583492b3ef3ec1000175ee76",NA,"583492b3ef3ec1000175ee76_sheep","sheep",64,550229,1009.6,23,"mirror","dist",0,3,"CR","dist4"
3,"detect-sheep","06/03/2023","sheep","583492b3ef3ec1000175ee76",NA,"583492b3ef3ec1000175ee76_sheep","sheep",65,556042,849.6,135,"chase","sheep",1,5,"Hit","sheep"
3,"detect-sheep","06/03/2023","sheep","583492b3ef3ec1000175ee76",NA,"583492b3ef3ec1000175ee76_sheep","sheep",66,562496,1418,234,"mirror","sheep",1,3,"FA","sheep"
3,"detect-sheep","06/03/2023","sheep","583492b3ef3ec1000175ee76",NA,"583492b3ef3ec1000175ee76_sheep","sheep",67,569187,1857.8,246,"mirror","dist",0,5,"CR","dist6"
3,"detect-sheep","06/03/2023","sheep","583492b3ef3ec1000175ee76",NA,"583492b3ef3ec1000175ee76_sheep","sheep",68,576042,1727.6,263,"mirror","dist",0,5,"CR","dist3"
3,"detect-sheep","06/03/2023","sheep","583492b3ef3ec1000175ee76",NA,"583492b3ef3ec1000175ee76_sheep","sheep",69,582055,1134.8,172,"mirror","dist",0,5,"CR","dist4"
3,"detect-sheep","06/03/2023","sheep","583492b3ef3ec1000175ee76",NA,"583492b3ef3ec1000175ee76_sheep","sheep",70,587654,776,39,"mirror","wolf",0,5,"CR","wolf"
3,"detect-sheep","06/03/2023","sheep","583492b3ef3ec1000175ee76",NA,"583492b3ef3ec1000175ee76_sheep","sheep",71,593390,795.2,103,"chase","dist",0,5,"Ms","dist2"
3,"detect-sheep","06/03/2023","sheep","583492b3ef3ec1000175ee76",NA,"583492b3ef3ec1000175ee76_sheep","sheep",72,599026,784.2,147,"chase","sheep",1,5,"Hit","sheep"
3,"detect-sheep","06/03/2023","sheep","583492b3ef3ec1000175ee76",NA,"583492b3ef3ec1000175ee76_sheep","sheep",73,605062,1168.6,243,"chase","dist",0,5,"Ms","dist1"
3,"detect-sheep","06/03/2023","sheep","583492b3ef3ec1000175ee76",NA,"583492b3ef3ec1000175ee76_sheep","sheep",74,611701,1401.5,205,"mirror","dist",0,2,"CR","dist6"
3,"detect-sheep","06/03/2023","sheep","583492b3ef3ec1000175ee76",NA,"583492b3ef3ec1000175ee76_sheep","sheep",75,617358,898,84,"chase","sheep",1,5,"Hit","sheep"
3,"detect-sheep","06/03/2023","sheep","583492b3ef3ec1000175ee76",NA,"583492b3ef3ec1000175ee76_sheep","sheep",76,623863,1538,238,"mirror","dist",0,2,"CR","dist5"
3,"detect-sheep","06/03/2023","sheep","583492b3ef3ec1000175ee76",NA,"583492b3ef3ec1000175ee76_sheep","sheep",77,630103,1383.9,169,"mirror","dist",0,2,"CR","dist5"
3,"detect-sheep","06/03/2023","sheep","583492b3ef3ec1000175ee76",NA,"583492b3ef3ec1000175ee76_sheep","sheep",78,636895,1000.1,215,"mirror","dist",0,5,"CR","dist3"
3,"detect-sheep","06/03/2023","sheep","583492b3ef3ec1000175ee76",NA,"583492b3ef3ec1000175ee76_sheep","sheep",79,642526,785.6999999,252,"chase","sheep",1,5,"Hit","sheep"
3,"detect-sheep","06/03/2023","sheep","583492b3ef3ec1000175ee76",NA,"583492b3ef3ec1000175ee76_sheep","sheep",80,648759,1307.7,151,"mirror","sheep",1,2,"FA","sheep"
3,"detect-sheep","06/03/2023","sheep","583492b3ef3ec1000175ee76",NA,"583492b3ef3ec1000175ee76_sheep","sheep",81,654938,1107.9,110,"chase","dist",0,5,"Ms","dist2"
3,"detect-sheep","06/03/2023","sheep","583492b3ef3ec1000175ee76",NA,"583492b3ef3ec1000175ee76_sheep","sheep",82,660585,790.8,265,"chase","sheep",1,5,"Hit","sheep"
3,"detect-sheep","06/03/2023","sheep","583492b3ef3ec1000175ee76",NA,"583492b3ef3ec1000175ee76_sheep","sheep",83,666551,923.5,87,"chase","dist",0,5,"Ms","dist4"
3,"detect-sheep","06/03/2023","sheep","583492b3ef3ec1000175ee76",NA,"583492b3ef3ec1000175ee76_sheep","sheep",84,672686,1235.6,245,"mirror","dist",0,2,"CR","dist3"
3,"detect-sheep","06/03/2023","sheep","583492b3ef3ec1000175ee76",NA,"583492b3ef3ec1000175ee76_sheep","sheep",85,678870,1327.9,149,"mirror","dist",0,5,"CR","dist3"
3,"detect-sheep","06/03/2023","sheep","583492b3ef3ec1000175ee76",NA,"583492b3ef3ec1000175ee76_sheep","sheep",86,684628,754.6999999,168,"mirror","sheep",1,2,"FA","sheep"
3,"detect-sheep","06/03/2023","sheep","583492b3ef3ec1000175ee76",NA,"583492b3ef3ec1000175ee76_sheep","sheep",87,690392,910.6999999,142,"mirror","sheep",1,2,"FA","sheep"
3,"detect-sheep","06/03/2023","sheep","583492b3ef3ec1000175ee76",NA,"583492b3ef3ec1000175ee76_sheep","sheep",88,696862,1699,225,"chase","sheep",1,5,"Hit","sheep"
3,"detect-sheep","06/03/2023","sheep","583492b3ef3ec1000175ee76",NA,"583492b3ef3ec1000175ee76_sheep","sheep",89,702332,665.8,144,"chase","sheep",1,5,"Hit","sheep"
3,"detect-sheep","06/03/2023","sheep","583492b3ef3ec1000175ee76",NA,"583492b3ef3ec1000175ee76_sheep","sheep",90,708934,1929.6,190,"mirror","dist",0,2,"CR","dist4"
3,"detect-sheep","06/03/2023","sheep","583492b3ef3ec1000175ee76",NA,"583492b3ef3ec1000175ee76_sheep","sheep",91,714470,723.1999999,28,"chase","sheep",1,5,"Hit","sheep"
3,"detect-sheep","06/03/2023","sheep","583492b3ef3ec1000175ee76",NA,"583492b3ef3ec1000175ee76_sheep","sheep",92,720581,1184.2,9,"mirror","dist",0,5,"CR","dist3"
3,"detect-sheep","06/03/2023","sheep","583492b3ef3ec1000175ee76",NA,"583492b3ef3ec1000175ee76_sheep","sheep",93,726478,1029.7,262,"mirror","dist",0,5,"CR","dist2"
3,"detect-sheep","06/03/2023","sheep","583492b3ef3ec1000175ee76",NA,"583492b3ef3ec1000175ee76_sheep","sheep",94,732685,1460.8,179,"chase","sheep",1,5,"Hit","sheep"
3,"detect-sheep","06/03/2023","sheep","583492b3ef3ec1000175ee76",NA,"583492b3ef3ec1000175ee76_sheep","sheep",95,738565,990.8000001,129,"mirror","dist",0,2,"CR","dist2"
3,"detect-sheep","06/03/2023","sheep","583492b3ef3ec1000175ee76",NA,"583492b3ef3ec1000175ee76_sheep","sheep",96,744494,1069.5,248,"mirror","dist",0,5,"CR","dist1"
3,"detect-sheep","06/03/2023","sheep","583492b3ef3ec1000175ee76",NA,"583492b3ef3ec1000175ee76_sheep","sheep",97,752118,2834.8,65,"mirror","dist",0,2,"CR","dist1"
3,"detect-sheep","06/03/2023","sheep","583492b3ef3ec1000175ee76",NA,"583492b3ef3ec1000175ee76_sheep","sheep",98,758150,1291,233,"mirror","wolf",0,2,"CR","wolf"
3,"detect-sheep","06/03/2023","sheep","583492b3ef3ec1000175ee76",NA,"583492b3ef3ec1000175ee76_sheep","sheep",99,764164,1202.3,213,"chase","dist",0,2,"Ms","dist5"
3,"detect-sheep","06/03/2023","sheep","583492b3ef3ec1000175ee76",NA,"583492b3ef3ec1000175ee76_sheep","sheep",100,769925,893.0999999,255,"mirror","dist",0,5,"CR","dist1"
3,"detect-sheep","06/03/2023","sheep","587418895c17910001ea4e75",NA,"587418895c17910001ea4e75_sheep","sheep",1,3150233,1971,24,"chase","dist",0,3,"Ms","dist5"
3,"detect-sheep","06/03/2023","sheep","587418895c17910001ea4e75",NA,"587418895c17910001ea4e75_sheep","sheep",2,3157263,1370,22,"chase","dist",0,2,"Ms","dist4"
3,"detect-sheep","06/03/2023","sheep","587418895c17910001ea4e75",NA,"587418895c17910001ea4e75_sheep","sheep",3,3164013,1104,75,"chase","sheep",1,3,"Hit","sheep"
3,"detect-sheep","06/03/2023","sheep","587418895c17910001ea4e75",NA,"587418895c17910001ea4e75_sheep","sheep",4,3170992,1120,18,"chase","sheep",1,3,"Hit","sheep"
3,"detect-sheep","06/03/2023","sheep","587418895c17910001ea4e75",NA,"587418895c17910001ea4e75_sheep","sheep",5,3178493,1370,99,"chase","sheep",1,3,"Hit","sheep"
3,"detect-sheep","06/03/2023","sheep","587418895c17910001ea4e75",NA,"587418895c17910001ea4e75_sheep","sheep",6,3185420,1621,84,"chase","sheep",1,2,"Hit","sheep"
3,"detect-sheep","06/03/2023","sheep","587418895c17910001ea4e75",NA,"587418895c17910001ea4e75_sheep","sheep",7,3193899,2803,11,"chase","dist",0,2,"Ms","dist2"
3,"detect-sheep","06/03/2023","sheep","587418895c17910001ea4e75",NA,"587418895c17910001ea4e75_sheep","sheep",8,3201869,2304,21,"chase","sheep",1,3,"Hit","sheep"
3,"detect-sheep","06/03/2023","sheep","587418895c17910001ea4e75",NA,"587418895c17910001ea4e75_sheep","sheep",9,3208961,1786,30,"chase","sheep",1,3,"Hit","sheep"
3,"detect-sheep","06/03/2023","sheep","587418895c17910001ea4e75",NA,"587418895c17910001ea4e75_sheep","sheep",10,3215890,1719,32,"chase","sheep",1,2,"Hit","sheep"
3,"detect-sheep","06/03/2023","sheep","587418895c17910001ea4e75",NA,"587418895c17910001ea4e75_sheep","sheep",11,3223411,2269,88,"chase","wolf",0,2,"Ms","wolf"
3,"detect-sheep","06/03/2023","sheep","587418895c17910001ea4e75",NA,"587418895c17910001ea4e75_sheep","sheep",12,3230620,1819,8,"chase","sheep",1,3,"Hit","sheep"
3,"detect-sheep","06/03/2023","sheep","587418895c17910001ea4e75",NA,"587418895c17910001ea4e75_sheep","sheep",13,3238365,2404,26,"chase","dist",0,2,"Ms","dist3"
3,"detect-sheep","06/03/2023","sheep","587418895c17910001ea4e75",NA,"587418895c17910001ea4e75_sheep","sheep",14,3246228,2052,103,"chase","sheep",1,3,"Hit","sheep"
3,"detect-sheep","06/03/2023","sheep","587418895c17910001ea4e75",NA,"587418895c17910001ea4e75_sheep","sheep",15,3253309,1737,73,"chase","sheep",1,3,"Hit","sheep"
3,"detect-sheep","06/03/2023","sheep","587418895c17910001ea4e75",NA,"587418895c17910001ea4e75_sheep","sheep",16,3260177,1451,85,"chase","sheep",1,3,"Hit","sheep"
3,"detect-sheep","06/03/2023","sheep","587418895c17910001ea4e75",NA,"587418895c17910001ea4e75_sheep","sheep",17,3267009,1553,31,"chase","sheep",1,3,"Hit","sheep"
3,"detect-sheep","06/03/2023","sheep","587418895c17910001ea4e75",NA,"587418895c17910001ea4e75_sheep","sheep",18,3273804,1586,33,"chase","sheep",1,3,"Hit","sheep"
3,"detect-sheep","06/03/2023","sheep","587418895c17910001ea4e75",NA,"587418895c17910001ea4e75_sheep","sheep",19,3280639,1504,27,"chase","sheep",1,2,"Hit","sheep"
3,"detect-sheep","06/03/2023","sheep","587418895c17910001ea4e75",NA,"587418895c17910001ea4e75_sheep","sheep",20,3288399,2336,82,"chase","wolf",0,2,"Ms","wolf"
3,"detect-sheep","06/03/2023","sheep","587418895c17910001ea4e75",NA,"587418895c17910001ea4e75_sheep","sheep",21,3295287,1621,70,"chase","sheep",1,3,"Hit","sheep"
3,"detect-sheep","06/03/2023","sheep","587418895c17910001ea4e75",NA,"587418895c17910001ea4e75_sheep","sheep",22,3304984,4452,76,"chase","sheep",1,3,"Hit","sheep"
3,"detect-sheep","06/03/2023","sheep","587418895c17910001ea4e75",NA,"587418895c17910001ea4e75_sheep","sheep",23,3312770,2403,98,"chase","dist",0,2,"Ms","dist1"
3,"detect-sheep","06/03/2023","sheep","587418895c17910001ea4e75",NA,"587418895c17910001ea4e75_sheep","sheep",24,3319442,1187,86,"chase","sheep",1,3,"Hit","sheep"
3,"detect-sheep","06/03/2023","sheep","587418895c17910001ea4e75",NA,"587418895c17910001ea4e75_sheep","sheep",25,3326438,1588,28,"chase","sheep",1,3,"Hit","sheep"
3,"detect-sheep","06/03/2023","sheep","587418895c17910001ea4e75",NA,"587418895c17910001ea4e75_sheep","sheep",26,3333301,1502,89,"chase","sheep",1,3,"Hit","sheep"
3,"detect-sheep","06/03/2023","sheep","587418895c17910001ea4e75",NA,"587418895c17910001ea4e75_sheep","sheep",27,3340390,1419,100,"chase","sheep",1,3,"Hit","sheep"
3,"detect-sheep","06/03/2023","sheep","587418895c17910001ea4e75",NA,"587418895c17910001ea4e75_sheep","sheep",28,3347243,1536,5,"chase","sheep",1,3,"Hit","sheep"
3,"detect-sheep","06/03/2023","sheep","587418895c17910001ea4e75",NA,"587418895c17910001ea4e75_sheep","sheep",29,3353970,1487,29,"chase","sheep",1,3,"Hit","sheep"
3,"detect-sheep","06/03/2023","sheep","587418895c17910001ea4e75",NA,"587418895c17910001ea4e75_sheep","sheep",30,3360350,1170,15,"chase","sheep",1,3,"Hit","sheep"
3,"detect-sheep","06/03/2023","sheep","587418895c17910001ea4e75",NA,"587418895c17910001ea4e75_sheep","sheep",31,3367377,1786,17,"chase","dist",0,2,"Ms","dist4"
3,"detect-sheep","06/03/2023","sheep","587418895c17910001ea4e75",NA,"587418895c17910001ea4e75_sheep","sheep",32,3374739,1618,105,"chase","sheep",1,3,"Hit","sheep"
3,"detect-sheep","06/03/2023","sheep","587418895c17910001ea4e75",NA,"587418895c17910001ea4e75_sheep","sheep",33,3381659,1720,9,"chase","sheep",1,2,"Hit","sheep"
3,"detect-sheep","06/03/2023","sheep","587418895c17910001ea4e75",NA,"587418895c17910001ea4e75_sheep","sheep",34,3389328,2537,10,"mirror","dist",0,1,"CR","dist2"
3,"detect-sheep","06/03/2023","sheep","587418895c17910001ea4e75",NA,"587418895c17910001ea4e75_sheep","sheep",35,3396237,1654,7,"chase","sheep",1,3,"Hit","sheep"
3,"detect-sheep","06/03/2023","sheep","587418895c17910001ea4e75",NA,"587418895c17910001ea4e75_sheep","sheep",36,3403487,2137,87,"chase","sheep",1,3,"Hit","sheep"
3,"detect-sheep","06/03/2023","sheep","587418895c17910001ea4e75",NA,"587418895c17910001ea4e75_sheep","sheep",37,3410304,1620,106,"mirror","dist",0,2,"CR","dist2"
3,"detect-sheep","06/03/2023","sheep","587418895c17910001ea4e75",NA,"587418895c17910001ea4e75_sheep","sheep",38,3417463,2004,112,"chase","sheep",1,2,"Hit","sheep"
3,"detect-sheep","06/03/2023","sheep","587418895c17910001ea4e75",NA,"587418895c17910001ea4e75_sheep","sheep",39,3424103,1386,83,"chase","sheep",1,3,"Hit","sheep"
3,"detect-sheep","06/03/2023","sheep","587418895c17910001ea4e75",NA,"587418895c17910001ea4e75_sheep","sheep",40,3431460,1952,4,"chase","sheep",1,3,"Hit","sheep"
3,"detect-sheep","06/03/2023","sheep","587418895c17910001ea4e75",NA,"587418895c17910001ea4e75_sheep","sheep",41,3438577,2001,72,"mirror","dist",0,2,"CR","dist1"
3,"detect-sheep","06/03/2023","sheep","587418895c17910001ea4e75",NA,"587418895c17910001ea4e75_sheep","sheep",42,3445873,2170,6,"chase","sheep",1,3,"Hit","sheep"
3,"detect-sheep","06/03/2023","sheep","587418895c17910001ea4e75",NA,"587418895c17910001ea4e75_sheep","sheep",43,3453208,2138,3,"mirror","wolf",0,2,"CR","wolf"
3,"detect-sheep","06/03/2023","sheep","587418895c17910001ea4e75",NA,"587418895c17910001ea4e75_sheep","sheep",44,3460742,2019,16,"chase","sheep",1,3,"Hit","sheep"
3,"detect-sheep","06/03/2023","sheep","587418895c17910001ea4e75",NA,"587418895c17910001ea4e75_sheep","sheep",45,3468528,2654,111,"chase","sheep",1,2,"Hit","sheep"
3,"detect-sheep","06/03/2023","sheep","587418895c17910001ea4e75",NA,"587418895c17910001ea4e75_sheep","sheep",46,3475134,1437,12,"chase","sheep",1,3,"Hit","sheep"
3,"detect-sheep","06/03/2023","sheep","587418895c17910001ea4e75",NA,"587418895c17910001ea4e75_sheep","sheep",47,3482061,1703,110,"chase","sheep",1,3,"Hit","sheep"
3,"detect-sheep","06/03/2023","sheep","587418895c17910001ea4e75",NA,"587418895c17910001ea4e75_sheep","sheep",48,3489045,1802,107,"mirror","dist",0,2,"CR","dist1"
3,"detect-sheep","06/03/2023","sheep","587418895c17910001ea4e75",NA,"587418895c17910001ea4e75_sheep","sheep",49,3495872,1669,13,"mirror","dist",0,2,"CR","dist2"
3,"detect-sheep","06/03/2023","sheep","587418895c17910001ea4e75",NA,"587418895c17910001ea4e75_sheep","sheep",50,3503449,2386,113,"mirror","sheep",1,3,"FA","sheep"
3,"detect-sheep","06/03/2023","sheep","587418895c17910001ea4e75",NA,"587418895c17910001ea4e75_sheep","sheep",51,3510518,1853,68,"mirror","dist",0,2,"CR","dist3"
3,"detect-sheep","06/03/2023","sheep","587418895c17910001ea4e75",NA,"587418895c17910001ea4e75_sheep","sheep",52,3517095,1352,14,"chase","sheep",1,3,"Hit","sheep"
3,"detect-sheep","06/03/2023","sheep","587418895c17910001ea4e75",NA,"587418895c17910001ea4e75_sheep","sheep",53,3523659,1353,35,"chase","dist",0,3,"Ms","dist6"
3,"detect-sheep","06/03/2023","sheep","587418895c17910001ea4e75",NA,"587418895c17910001ea4e75_sheep","sheep",54,3530478,1301,108,"chase","sheep",1,3,"Hit","sheep"
3,"detect-sheep","06/03/2023","sheep","587418895c17910001ea4e75",NA,"587418895c17910001ea4e75_sheep","sheep",55,3538562,3253,38,"chase","sheep",1,2,"Hit","sheep"
3,"detect-sheep","06/03/2023","sheep","587418895c17910001ea4e75",NA,"587418895c17910001ea4e75_sheep","sheep",56,3544601,836,109,"chase","sheep",1,3,"Hit","sheep"
3,"detect-sheep","06/03/2023","sheep","587418895c17910001ea4e75",NA,"587418895c17910001ea4e75_sheep","sheep",57,3551690,1871,90,"chase","sheep",1,3,"Hit","sheep"
3,"detect-sheep","06/03/2023","sheep","587418895c17910001ea4e75",NA,"587418895c17910001ea4e75_sheep","sheep",58,3559092,2137,34,"mirror","dist",0,3,"CR","dist1"
3,"detect-sheep","06/03/2023","sheep","587418895c17910001ea4e75",NA,"587418895c17910001ea4e75_sheep","sheep",59,3566241,1954,36,"mirror","sheep",1,3,"FA","sheep"
3,"detect-sheep","06/03/2023","sheep","587418895c17910001ea4e75",NA,"587418895c17910001ea4e75_sheep","sheep",60,3573121,1288,39,"chase","sheep",1,2,"Hit","sheep"
3,"detect-sheep","06/03/2023","sheep","587418895c17910001ea4e75",NA,"587418895c17910001ea4e75_sheep","sheep",61,3579911,1569,91,"mirror","sheep",1,2,"FA","sheep"
3,"detect-sheep","06/03/2023","sheep","587418895c17910001ea4e75",NA,"587418895c17910001ea4e75_sheep","sheep",62,3587634,2820,119,"mirror","dist",0,1,"CR","dist1"
3,"detect-sheep","06/03/2023","sheep","587418895c17910001ea4e75",NA,"587418895c17910001ea4e75_sheep","sheep",63,3594267,1603,41,"mirror","dist",0,2,"CR","dist5"
3,"detect-sheep","06/03/2023","sheep","587418895c17910001ea4e75",NA,"587418895c17910001ea4e75_sheep","sheep",64,3602086,2670,93,"mirror","dist",0,2,"CR","dist1"
3,"detect-sheep","06/03/2023","sheep","587418895c17910001ea4e75",NA,"587418895c17910001ea4e75_sheep","sheep",65,3610344,3071,40,"mirror","dist",0,2,"CR","dist3"
