"experiment","version","interview_date","task","PROLIFIC_PID","workerId","identifier","first","trial_num","time_elapsed","reaction_time","trial_id","condition","choice","correct","confidence","cells","selected"
4,"sheep-and-wolf","10/17/2023","wolf",NA,"A106QH27FETZ88","A106QH27FETZ88_wolf","wolf",1,188552,1717,25,"chase","dist",0,3,"Ms","dist3"
4,"sheep-and-wolf","10/17/2023","wolf",NA,"A106QH27FETZ88","A106QH27FETZ88_wolf","wolf",2,196505,1958,9,"mirror","dist",0,3,"CR","dist4"
4,"sheep-and-wolf","10/17/2023","wolf",NA,"A106QH27FETZ88","A106QH27FETZ88_wolf","wolf",3,205879,3271,33,"mirror","dist",0,2,"CR","dist1"
4,"sheep-and-wolf","10/17/2023","wolf",NA,"A106QH27FETZ88","A106QH27FETZ88_wolf","wolf",4,214082,2275,129,"mirror","dist",0,3,"CR","dist1"
4,"sheep-and-wolf","10/17/2023","wolf",NA,"A106QH27FETZ88","A106QH27FETZ88_wolf","wolf",5,221988,1652,7,"chase","dist",0,5,"Ms","dist4"
4,"sheep-and-wolf","10/17/2023","wolf",NA,"A106QH27FETZ88","A106QH27FETZ88_wolf","wolf",6,229568,1529,19,"mirror","dist",0,5,"CR","dist6"
4,"sheep-and-wolf","10/17/2023","wolf",NA,"A106QH27FETZ88","A106QH27FETZ88_wolf","wolf",7,236785,1325,82,"chase","sheep",0,2,"Ms","sheep"
4,"sheep-and-wolf","10/17/2023","wolf",NA,"A106QH27FETZ88","A106QH27FETZ88_wolf","wolf",8,244614,1886,142,"mirror","dist",0,3,"CR","dist6"
4,"sheep-and-wolf","10/17/2023","wolf",NA,"A106QH27FETZ88","A106QH27FETZ88_wolf","wolf",9,251521,997,13,"mirror","dist",0,3,"CR","dist4"
4,"sheep-and-wolf","10/17/2023","wolf",NA,"A106QH27FETZ88","A106QH27FETZ88_wolf","wolf",10,259973,1825,32,"mirror","dist",0,2,"CR","dist2"
4,"sheep-and-wolf","10/17/2023","wolf",NA,"A106QH27FETZ88","A106QH27FETZ88_wolf","wolf",11,267328,1440,6,"mirror","sheep",0,3,"CR","sheep"
4,"sheep-and-wolf","10/17/2023","wolf",NA,"A106QH27FETZ88","A106QH27FETZ88_wolf","wolf",12,277342,3784,98,"mirror","sheep",0,2,"CR","sheep"
4,"sheep-and-wolf","10/17/2023","wolf",NA,"A106QH27FETZ88","A106QH27FETZ88_wolf","wolf",13,285320,2075,146,"mirror","sheep",0,2,"CR","sheep"
4,"sheep-and-wolf","10/17/2023","wolf",NA,"A106QH27FETZ88","A106QH27FETZ88_wolf","wolf",14,293804,2729,125,"chase","dist",0,3,"Ms","dist2"
4,"sheep-and-wolf","10/17/2023","wolf",NA,"A106QH27FETZ88","A106QH27FETZ88_wolf","wolf",15,302064,2300,3,"mirror","dist",0,2,"CR","dist6"
4,"sheep-and-wolf","10/17/2023","wolf",NA,"A106QH27FETZ88","A106QH27FETZ88_wolf","wolf",16,309781,2008,90,"mirror","wolf",1,2,"FA","wolf"
4,"sheep-and-wolf","10/17/2023","wolf",NA,"A106QH27FETZ88","A106QH27FETZ88_wolf","wolf",17,318464,1592,197,"chase","dist",0,2,"Ms","dist3"
4,"sheep-and-wolf","10/17/2023","wolf",NA,"A106QH27FETZ88","A106QH27FETZ88_wolf","wolf",18,325491,1062,203,"mirror","wolf",1,3,"FA","wolf"
4,"sheep-and-wolf","10/17/2023","wolf",NA,"A106QH27FETZ88","A106QH27FETZ88_wolf","wolf",19,334105,2141,223,"mirror","dist",0,5,"CR","dist6"
4,"sheep-and-wolf","10/17/2023","wolf",NA,"A106QH27FETZ88","A106QH27FETZ88_wolf","wolf",20,341624,1495,209,"mirror","dist",0,2,"CR","dist2"
4,"sheep-and-wolf","10/17/2023","wolf",NA,"A106QH27FETZ88","A106QH27FETZ88_wolf","wolf",21,362494,14424,123,"mirror","sheep",0,2,"CR","sheep"
4,"sheep-and-wolf","10/17/2023","wolf",NA,"A106QH27FETZ88","A106QH27FETZ88_wolf","wolf",22,369586,1140,220,"mirror","dist",0,5,"CR","dist5"
4,"sheep-and-wolf","10/17/2023","wolf",NA,"A106QH27FETZ88","A106QH27FETZ88_wolf","wolf",23,384465,8572,168,"chase","sheep",0,3,"Ms","sheep"
4,"sheep-and-wolf","10/17/2023","wolf",NA,"A106QH27FETZ88","A106QH27FETZ88_wolf","wolf",24,392228,1794,178,"chase","sheep",0,2,"Ms","sheep"
4,"sheep-and-wolf","10/17/2023","wolf",NA,"A106QH27FETZ88","A106QH27FETZ88_wolf","wolf",25,399817,1562,227,"mirror","dist",0,2,"CR","dist6"
4,"sheep-and-wolf","10/17/2023","wolf",NA,"A106QH27FETZ88","A106QH27FETZ88_wolf","wolf",26,414573,8692,38,"chase","sheep",0,3,"Ms","sheep"
4,"sheep-and-wolf","10/17/2023","wolf",NA,"A106QH27FETZ88","A106QH27FETZ88_wolf","wolf",27,421756,1361,4,"mirror","dist",0,3,"CR","dist6"
4,"sheep-and-wolf","10/17/2023","wolf",NA,"A106QH27FETZ88","A106QH27FETZ88_wolf","wolf",28,429011,1225,24,"chase","wolf",1,2,"Hit","wolf"
4,"sheep-and-wolf","10/17/2023","wolf",NA,"A106QH27FETZ88","A106QH27FETZ88_wolf","wolf",29,437524,2437,30,"chase","dist",0,4,"Ms","dist3"
4,"sheep-and-wolf","10/17/2023","wolf",NA,"A106QH27FETZ88","A106QH27FETZ88_wolf","wolf",30,445292,2107,190,"chase","dist",0,3,"Ms","dist2"
4,"sheep-and-wolf","10/17/2023","wolf",NA,"A106QH27FETZ88","A106QH27FETZ88_wolf","wolf",31,454574,3406,78,"chase","dist",0,3,"Ms","dist3"
4,"sheep-and-wolf","10/17/2023","wolf",NA,"A106QH27FETZ88","A106QH27FETZ88_wolf","wolf",32,466368,5338,2,"chase","dist",0,3,"Ms","dist1"
4,"sheep-and-wolf","10/17/2023","wolf",NA,"A106QH27FETZ88","A106QH27FETZ88_wolf","wolf",33,474298,1910,198,"mirror","dist",0,2,"CR","dist6"
4,"sheep-and-wolf","10/17/2023","wolf",NA,"A106QH27FETZ88","A106QH27FETZ88_wolf","wolf",34,485021,4069,126,"mirror","wolf",1,3,"FA","wolf"
4,"sheep-and-wolf","10/17/2023","wolf",NA,"A106QH27FETZ88","A106QH27FETZ88_wolf","wolf",35,496968,6257,228,"chase","dist",0,5,"Ms","dist4"
4,"sheep-and-wolf","10/17/2023","wolf",NA,"A106QH27FETZ88","A106QH27FETZ88_wolf","wolf",36,505592,2759,18,"chase","dist",0,4,"Ms","dist5"
4,"sheep-and-wolf","10/17/2023","wolf",NA,"A106QH27FETZ88","A106QH27FETZ88_wolf","wolf",37,514532,2900,101,"chase","dist",0,5,"Ms","dist2"
4,"sheep-and-wolf","10/17/2023","wolf",NA,"A106QH27FETZ88","A106QH27FETZ88_wolf","wolf",38,1100899,578763,218,"mirror","dist",0,4,"CR","dist5"
4,"sheep-and-wolf","10/17/2023","wolf",NA,"A106QH27FETZ88","A106QH27FETZ88_wolf","wolf",39,1110748,3888,135,"chase","dist",0,3,"Ms","dist5"
4,"sheep-and-wolf","10/17/2023","wolf",NA,"A106QH27FETZ88","A106QH27FETZ88_wolf","wolf",40,1117532,964,234,"mirror","dist",0,1,"CR","dist2"
4,"sheep-and-wolf","10/17/2023","wolf",NA,"A106QH27FETZ88","A106QH27FETZ88_wolf","wolf",41,1124703,1424,10,"chase","dist",0,4,"Ms","dist2"
4,"sheep-and-wolf","10/17/2023","wolf",NA,"A106QH27FETZ88","A106QH27FETZ88_wolf","wolf",42,1131864,1659,143,"chase","dist",0,2,"Ms","dist4"
4,"sheep-and-wolf","10/17/2023","wolf",NA,"A106QH27FETZ88","A106QH27FETZ88_wolf","wolf",43,1141377,3061,133,"chase","sheep",0,5,"Ms","sheep"
4,"sheep-and-wolf","10/17/2023","wolf",NA,"A106QH27FETZ88","A106QH27FETZ88_wolf","wolf",44,1149130,1193,282,"mirror","dist",0,3,"CR","dist3"
4,"sheep-and-wolf","10/17/2023","wolf",NA,"A106QH27FETZ88","A106QH27FETZ88_wolf","wolf",45,1156461,1628,134,"mirror","dist",0,1,"CR","dist2"
4,"sheep-and-wolf","10/17/2023","wolf",NA,"A106QH27FETZ88","A106QH27FETZ88_wolf","wolf",46,1163883,1556,229,"mirror","dist",0,4,"CR","dist4"
4,"sheep-and-wolf","10/17/2023","wolf",NA,"A106QH27FETZ88","A106QH27FETZ88_wolf","wolf",47,1171532,1762,179,"mirror","sheep",0,2,"CR","sheep"
4,"sheep-and-wolf","10/17/2023","wolf",NA,"A106QH27FETZ88","A106QH27FETZ88_wolf","wolf",48,1180310,2139,11,"chase","dist",0,5,"Ms","dist5"
4,"sheep-and-wolf","10/17/2023","wolf",NA,"A106QH27FETZ88","A106QH27FETZ88_wolf","wolf",49,1189657,2975,162,"mirror","dist",0,3,"CR","dist6"
4,"sheep-and-wolf","10/17/2023","wolf",NA,"A106QH27FETZ88","A106QH27FETZ88_wolf","wolf",50,1196845,1309,149,"mirror","dist",0,1,"CR","dist6"
4,"sheep-and-wolf","10/17/2023","wolf",NA,"A106QH27FETZ88","A106QH27FETZ88_wolf","wolf",51,1205297,2236,240,"chase","sheep",0,3,"Ms","sheep"
4,"sheep-and-wolf","10/17/2023","wolf",NA,"A106QH27FETZ88","A106QH27FETZ88_wolf","wolf",52,1215027,2861,8,"mirror","wolf",1,1,"FA","wolf"
4,"sheep-and-wolf","10/17/2023","wolf",NA,"A106QH27FETZ88","A106QH27FETZ88_wolf","wolf",53,1224091,2975,192,"chase","dist",0,4,"Ms","dist6"
4,"sheep-and-wolf","10/17/2023","wolf",NA,"A106QH27FETZ88","A106QH27FETZ88_wolf","wolf",54,1232281,2209,166,"chase","sheep",0,2,"Ms","sheep"
4,"sheep-and-wolf","10/17/2023","wolf",NA,"A106QH27FETZ88","A106QH27FETZ88_wolf","wolf",55,1240583,2044,29,"mirror","sheep",0,5,"CR","sheep"
4,"sheep-and-wolf","10/17/2023","wolf",NA,"A106QH27FETZ88","A106QH27FETZ88_wolf","wolf",56,1248300,1764,264,"chase","dist",0,2,"Ms","dist5"
4,"sheep-and-wolf","10/17/2023","wolf",NA,"A106QH27FETZ88","A106QH27FETZ88_wolf","wolf",57,1255990,1753,177,"mirror","dist",0,2,"CR","dist3"
4,"sheep-and-wolf","10/17/2023","wolf",NA,"A106QH27FETZ88","A106QH27FETZ88_wolf","wolf",58,1263316,1420,12,"mirror","dist",0,3,"CR","dist2"
4,"sheep-and-wolf","10/17/2023","wolf",NA,"A106QH27FETZ88","A106QH27FETZ88_wolf","wolf",59,1270428,1367,266,"chase","sheep",0,2,"Ms","sheep"
4,"sheep-and-wolf","10/17/2023","wolf",NA,"A106QH27FETZ88","A106QH27FETZ88_wolf","wolf",60,1277731,1493,247,"mirror","dist",0,4,"CR","dist3"
4,"sheep-and-wolf","10/17/2023","wolf",NA,"A106QH27FETZ88","A106QH27FETZ88_wolf","wolf",61,1286429,2772,250,"mirror","dist",0,3,"CR","dist2"
4,"sheep-and-wolf","10/17/2023","wolf",NA,"A106QH27FETZ88","A106QH27FETZ88_wolf","wolf",62,1295302,3158,216,"chase","dist",0,1,"Ms","dist1"
4,"sheep-and-wolf","10/17/2023","wolf",NA,"A106QH27FETZ88","A106QH27FETZ88_wolf","wolf",63,1302556,1451,180,"chase","dist",0,4,"Ms","dist2"
4,"sheep-and-wolf","10/17/2023","wolf",NA,"A106QH27FETZ88","A106QH27FETZ88_wolf","wolf",64,1311353,2844,230,"chase","wolf",1,2,"Hit","wolf"
4,"sheep-and-wolf","10/17/2023","wolf",NA,"A106QH27FETZ88","A106QH27FETZ88_wolf","wolf",65,1318839,1755,237,"chase","sheep",0,5,"Ms","sheep"
4,"sheep-and-wolf","10/17/2023","wolf",NA,"A106QH27FETZ88","A106QH27FETZ88_wolf","wolf",66,1325913,1179,241,"chase","dist",0,3,"Ms","dist2"
4,"sheep-and-wolf","10/17/2023","wolf",NA,"A106QH27FETZ88","A106QH27FETZ88_wolf","wolf",67,1333300,1329,97,"chase","sheep",0,2,"Ms","sheep"
4,"sheep-and-wolf","10/17/2023","wolf",NA,"A106QH27FETZ88","A106QH27FETZ88_wolf","wolf",68,1340547,1507,175,"chase","wolf",1,2,"Hit","wolf"
4,"sheep-and-wolf","10/17/2023","wolf",NA,"A106QH27FETZ88","A106QH27FETZ88_wolf","wolf",69,1348314,1300,170,"chase","dist",0,2,"Ms","dist6"
4,"sheep-and-wolf","10/17/2023","wolf",NA,"A106QH27FETZ88","A106QH27FETZ88_wolf","wolf",70,1355844,1664,205,"chase","wolf",1,5,"Hit","wolf"
4,"sheep-and-wolf","10/17/2023","sheep",NA,"A106QH27FETZ88","A106QH27FETZ88_sheep","wolf",1,2271928,3969,25,"chase","dist",0,2,"Ms","dist2"
4,"sheep-and-wolf","10/17/2023","sheep",NA,"A106QH27FETZ88","A106QH27FETZ88_sheep","wolf",2,2278902,1244,9,"mirror","dist",0,2,"CR","dist5"
4,"sheep-and-wolf","10/17/2023","sheep",NA,"A106QH27FETZ88","A106QH27FETZ88_sheep","wolf",3,2286081,1428,33,"mirror","dist",0,3,"CR","dist5"
4,"sheep-and-wolf","10/17/2023","sheep",NA,"A106QH27FETZ88","A106QH27FETZ88_sheep","wolf",4,2293907,2011,129,"mirror","dist",0,1,"CR","dist5"
4,"sheep-and-wolf","10/17/2023","sheep",NA,"A106QH27FETZ88","A106QH27FETZ88_sheep","wolf",5,2301267,1112,7,"chase","dist",0,3,"Ms","dist6"
4,"sheep-and-wolf","10/17/2023","sheep",NA,"A106QH27FETZ88","A106QH27FETZ88_sheep","wolf",6,2309426,2324,19,"mirror","sheep",1,3,"FA","sheep"
4,"sheep-and-wolf","10/17/2023","sheep",NA,"A106QH27FETZ88","A106QH27FETZ88_sheep","wolf",7,2317706,2578,82,"chase","dist",0,3,"Ms","dist6"
4,"sheep-and-wolf","10/17/2023","sheep",NA,"A106QH27FETZ88","A106QH27FETZ88_sheep","wolf",8,2325519,1735,142,"mirror","sheep",1,3,"FA","sheep"
4,"sheep-and-wolf","10/17/2023","sheep",NA,"A106QH27FETZ88","A106QH27FETZ88_sheep","wolf",9,2340390,9002,13,"mirror","dist",0,3,"CR","dist1"
4,"sheep-and-wolf","10/17/2023","sheep",NA,"A106QH27FETZ88","A106QH27FETZ88_sheep","wolf",10,2347837,1361,32,"mirror","dist",0,3,"CR","dist6"
4,"sheep-and-wolf","10/17/2023","sheep",NA,"A106QH27FETZ88","A106QH27FETZ88_sheep","wolf",11,2356847,3332,6,"mirror","dist",0,1,"CR","dist1"
4,"sheep-and-wolf","10/17/2023","sheep",NA,"A106QH27FETZ88","A106QH27FETZ88_sheep","wolf",12,2371112,8422,98,"mirror","wolf",0,5,"CR","wolf"
4,"sheep-and-wolf","10/17/2023","sheep",NA,"A106QH27FETZ88","A106QH27FETZ88_sheep","wolf",13,2378209,1122,146,"mirror","wolf",0,5,"CR","wolf"
4,"sheep-and-wolf","10/17/2023","sheep",NA,"A106QH27FETZ88","A106QH27FETZ88_sheep","wolf",14,2385868,1865,125,"chase","sheep",1,4,"Hit","sheep"
4,"sheep-and-wolf","10/17/2023","sheep",NA,"A106QH27FETZ88","A106QH27FETZ88_sheep","wolf",15,2392932,1004,3,"mirror","sheep",1,3,"FA","sheep"
4,"sheep-and-wolf","10/17/2023","sheep",NA,"A106QH27FETZ88","A106QH27FETZ88_sheep","wolf",16,2401298,1827,90,"mirror","dist",0,2,"CR","dist6"
4,"sheep-and-wolf","10/17/2023","sheep",NA,"A106QH27FETZ88","A106QH27FETZ88_sheep","wolf",17,2408979,1440,197,"chase","dist",0,5,"Ms","dist5"
4,"sheep-and-wolf","10/17/2023","sheep",NA,"A106QH27FETZ88","A106QH27FETZ88_sheep","wolf",18,2423942,8929,203,"mirror","dist",0,2,"CR","dist6"
4,"sheep-and-wolf","10/17/2023","sheep",NA,"A106QH27FETZ88","A106QH27FETZ88_sheep","wolf",19,2433448,3469,223,"mirror","dist",0,2,"CR","dist5"
4,"sheep-and-wolf","10/17/2023","sheep",NA,"A106QH27FETZ88","A106QH27FETZ88_sheep","wolf",20,2440547,1267,209,"mirror","wolf",0,3,"CR","wolf"
4,"sheep-and-wolf","10/17/2023","sheep",NA,"A106QH27FETZ88","A106QH27FETZ88_sheep","wolf",21,2448192,1378,123,"mirror","sheep",1,4,"FA","sheep"
4,"sheep-and-wolf","10/17/2023","sheep",NA,"A106QH27FETZ88","A106QH27FETZ88_sheep","wolf",22,2455779,1414,220,"mirror","dist",0,5,"CR","dist6"
4,"sheep-and-wolf","10/17/2023","sheep",NA,"A106QH27FETZ88","A106QH27FETZ88_sheep","wolf",23,2465967,4335,168,"chase","dist",0,2,"Ms","dist1"
4,"sheep-and-wolf","10/17/2023","sheep",NA,"A106QH27FETZ88","A106QH27FETZ88_sheep","wolf",24,2474872,3014,178,"chase","dist",0,3,"Ms","dist1"
4,"sheep-and-wolf","10/17/2023","sheep",NA,"A106QH27FETZ88","A106QH27FETZ88_sheep","wolf",25,2482010,1377,227,"mirror","dist",0,4,"CR","dist5"
4,"sheep-and-wolf","10/17/2023","sheep",NA,"A106QH27FETZ88","A106QH27FETZ88_sheep","wolf",26,2496335,8373,38,"chase","sheep",1,3,"Hit","sheep"
4,"sheep-and-wolf","10/17/2023","sheep",NA,"A106QH27FETZ88","A106QH27FETZ88_sheep","wolf",27,2503815,1727,4,"mirror","dist",0,2,"CR","dist2"
4,"sheep-and-wolf","10/17/2023","sheep",NA,"A106QH27FETZ88","A106QH27FETZ88_sheep","wolf",28,2511839,1545,24,"chase","sheep",1,2,"Hit","sheep"
4,"sheep-and-wolf","10/17/2023","sheep",NA,"A106QH27FETZ88","A106QH27FETZ88_sheep","wolf",29,2518864,1345,30,"chase","dist",0,3,"Ms","dist3"
4,"sheep-and-wolf","10/17/2023","sheep",NA,"A106QH27FETZ88","A106QH27FETZ88_sheep","wolf",30,2526212,1345,190,"chase","dist",0,4,"Ms","dist3"
4,"sheep-and-wolf","10/17/2023","sheep",NA,"A106QH27FETZ88","A106QH27FETZ88_sheep","wolf",31,2533213,1252,78,"chase","wolf",0,5,"Ms","wolf"
4,"sheep-and-wolf","10/17/2023","sheep",NA,"A106QH27FETZ88","A106QH27FETZ88_sheep","wolf",32,2541073,1657,2,"chase","dist",0,3,"Ms","dist4"
4,"sheep-and-wolf","10/17/2023","sheep",NA,"A106QH27FETZ88","A106QH27FETZ88_sheep","wolf",33,2559881,5481,198,"mirror","sheep",1,3,"FA","sheep"
4,"sheep-and-wolf","10/17/2023","sheep",NA,"A106QH27FETZ88","A106QH27FETZ88_sheep","wolf",34,2568214,2316,126,"mirror","dist",0,2,"CR","dist1"
4,"sheep-and-wolf","10/17/2023","sheep",NA,"A106QH27FETZ88","A106QH27FETZ88_sheep","wolf",35,2575519,1563,228,"chase","dist",0,2,"Ms","dist1"
4,"sheep-and-wolf","10/17/2023","sheep",NA,"A106QH27FETZ88","A106QH27FETZ88_sheep","wolf",36,2583021,1523,18,"chase","dist",0,4,"Ms","dist4"
4,"sheep-and-wolf","10/17/2023","sheep",NA,"A106QH27FETZ88","A106QH27FETZ88_sheep","wolf",37,2590400,1717,101,"chase","wolf",0,4,"Ms","wolf"
4,"sheep-and-wolf","10/17/2023","sheep",NA,"A106QH27FETZ88","A106QH27FETZ88_sheep","wolf",38,2597901,1455,218,"mirror","dist",0,2,"CR","dist5"
4,"sheep-and-wolf","10/17/2023","sheep",NA,"A106QH27FETZ88","A106QH27FETZ88_sheep","wolf",39,2605101,983,135,"chase","wolf",0,2,"Ms","wolf"
4,"sheep-and-wolf","10/17/2023","sheep",NA,"A106QH27FETZ88","A106QH27FETZ88_sheep","wolf",40,2612772,1336,234,"mirror","dist",0,3,"CR","dist2"
4,"sheep-and-wolf","10/17/2023","sheep",NA,"A106QH27FETZ88","A106QH27FETZ88_sheep","wolf",41,2620824,2212,10,"chase","dist",0,2,"Ms","dist5"
4,"sheep-and-wolf","10/17/2023","sheep",NA,"A106QH27FETZ88","A106QH27FETZ88_sheep","wolf",42,2628287,1330,143,"chase","dist",0,4,"Ms","dist6"
4,"sheep-and-wolf","10/17/2023","sheep",NA,"A106QH27FETZ88","A106QH27FETZ88_sheep","wolf",43,2637502,2893,133,"chase","dist",0,3,"Ms","dist5"
4,"sheep-and-wolf","10/17/2023","sheep",NA,"A106QH27FETZ88","A106QH27FETZ88_sheep","wolf",44,2645618,2183,282,"mirror","dist",0,2,"CR","dist4"
4,"sheep-and-wolf","10/17/2023","sheep",NA,"A106QH27FETZ88","A106QH27FETZ88_sheep","wolf",45,2654250,2328,134,"mirror","dist",0,4,"CR","dist3"
4,"sheep-and-wolf","10/17/2023","sheep",NA,"A106QH27FETZ88","A106QH27FETZ88_sheep","wolf",46,2662120,1863,229,"mirror","dist",0,3,"CR","dist4"
4,"sheep-and-wolf","10/17/2023","sheep",NA,"A106QH27FETZ88","A106QH27FETZ88_sheep","wolf",47,2670678,2528,179,"mirror","dist",0,3,"CR","dist5"
4,"sheep-and-wolf","10/17/2023","sheep",NA,"A106QH27FETZ88","A106QH27FETZ88_sheep","wolf",48,2682263,5197,11,"chase","dist",0,2,"Ms","dist5"
4,"sheep-and-wolf","10/17/2023","sheep",NA,"A106QH27FETZ88","A106QH27FETZ88_sheep","wolf",49,2689811,1510,162,"mirror","dist",0,1,"CR","dist6"
4,"sheep-and-wolf","10/17/2023","sheep",NA,"A106QH27FETZ88","A106QH27FETZ88_sheep","wolf",50,2697177,1187,149,"mirror","dist",0,4,"CR","dist1"
4,"sheep-and-wolf","10/17/2023","sheep",NA,"A106QH27FETZ88","A106QH27FETZ88_sheep","wolf",51,2706880,3345,240,"chase","sheep",1,4,"Hit","sheep"
4,"sheep-and-wolf","10/17/2023","sheep",NA,"A106QH27FETZ88","A106QH27FETZ88_sheep","wolf",52,2714373,1549,8,"mirror","sheep",1,2,"FA","sheep"
4,"sheep-and-wolf","10/17/2023","sheep",NA,"A106QH27FETZ88","A106QH27FETZ88_sheep","wolf",53,2721583,1113,192,"chase","sheep",1,2,"Hit","sheep"
4,"sheep-and-wolf","10/17/2023","sheep",NA,"A106QH27FETZ88","A106QH27FETZ88_sheep","wolf",54,2729791,1839,166,"chase","dist",0,1,"Ms","dist3"
4,"sheep-and-wolf","10/17/2023","sheep",NA,"A106QH27FETZ88","A106QH27FETZ88_sheep","wolf",55,2737255,1413,29,"mirror","wolf",0,5,"CR","wolf"
4,"sheep-and-wolf","10/17/2023","sheep",NA,"A106QH27FETZ88","A106QH27FETZ88_sheep","wolf",56,2744863,1596,264,"chase","dist",0,4,"Ms","dist2"
4,"sheep-and-wolf","10/17/2023","sheep",NA,"A106QH27FETZ88","A106QH27FETZ88_sheep","wolf",57,2752887,2055,177,"mirror","sheep",1,3,"FA","sheep"
4,"sheep-and-wolf","10/17/2023","sheep",NA,"A106QH27FETZ88","A106QH27FETZ88_sheep","wolf",58,2760862,1395,12,"mirror","dist",0,5,"CR","dist3"
4,"sheep-and-wolf","10/17/2023","sheep",NA,"A106QH27FETZ88","A106QH27FETZ88_sheep","wolf",59,2768301,1635,266,"chase","dist",0,4,"Ms","dist1"
4,"sheep-and-wolf","10/17/2023","sheep",NA,"A106QH27FETZ88","A106QH27FETZ88_sheep","wolf",60,2775939,1683,247,"mirror","dist",0,4,"CR","dist5"
4,"sheep-and-wolf","10/17/2023","sheep",NA,"A106QH27FETZ88","A106QH27FETZ88_sheep","wolf",61,2783984,2074,250,"mirror","dist",0,4,"CR","dist4"
4,"sheep-and-wolf","10/17/2023","sheep",NA,"A106QH27FETZ88","A106QH27FETZ88_sheep","wolf",62,2791620,1845,216,"chase","dist",0,4,"Ms","dist3"
4,"sheep-and-wolf","10/17/2023","sheep",NA,"A106QH27FETZ88","A106QH27FETZ88_sheep","wolf",63,2799609,2118,180,"chase","dist",0,4,"Ms","dist2"
4,"sheep-and-wolf","10/17/2023","sheep",NA,"A106QH27FETZ88","A106QH27FETZ88_sheep","wolf",64,2810186,1326,230,"chase","dist",0,3,"Ms","dist2"
4,"sheep-and-wolf","10/17/2023","sheep",NA,"A106QH27FETZ88","A106QH27FETZ88_sheep","wolf",65,2817464,1177,237,"chase","dist",0,2,"Ms","dist6"
4,"sheep-and-wolf","10/17/2023","sheep",NA,"A106QH27FETZ88","A106QH27FETZ88_sheep","wolf",66,2830312,3785,241,"chase","wolf",0,3,"Ms","wolf"
4,"sheep-and-wolf","10/17/2023","sheep",NA,"A106QH27FETZ88","A106QH27FETZ88_sheep","wolf",67,2846361,10120,97,"chase","dist",0,4,"Ms","dist2"
4,"sheep-and-wolf","10/17/2023","sheep",NA,"A106QH27FETZ88","A106QH27FETZ88_sheep","wolf",68,2853092,1303,175,"chase","dist",0,4,"Ms","dist6"
4,"sheep-and-wolf","10/17/2023","sheep",NA,"A106QH27FETZ88","A106QH27FETZ88_sheep","wolf",69,2860292,1968,170,"chase","wolf",0,3,"Ms","wolf"
4,"sheep-and-wolf","10/17/2023","sheep",NA,"A106QH27FETZ88","A106QH27FETZ88_sheep","wolf",70,2867404,1277,205,"chase","wolf",0,4,"Ms","wolf"
4,"sheep-and-wolf","10/17/2023","sheep",NA,"A10JXOU89D5RXR","A10JXOU89D5RXR_sheep","sheep",1,138666,1870.40000000596,235,"mirror","dist",0,3,"CR","dist2"
4,"sheep-and-wolf","10/17/2023","sheep",NA,"A10JXOU89D5RXR","A10JXOU89D5RXR_sheep","sheep",2,146942,1913,243,"mirror","dist",0,1,"CR","dist3"
4,"sheep-and-wolf","10/17/2023","sheep",NA,"A10JXOU89D5RXR","A10JXOU89D5RXR_sheep","sheep",3,154296,1402.19999998808,245,"mirror","wolf",0,1,"CR","wolf"
4,"sheep-and-wolf","10/17/2023","sheep",NA,"A10JXOU89D5RXR","A10JXOU89D5RXR_sheep","sheep",4,161636,1535.19999998808,229,"chase","dist",0,2,"Ms","dist4"
4,"sheep-and-wolf","10/17/2023","sheep",NA,"A10JXOU89D5RXR","A10JXOU89D5RXR_sheep","sheep",5,170535,3357.5,159,"mirror","dist",0,1,"CR","dist6"
4,"sheep-and-wolf","10/17/2023","sheep",NA,"A10JXOU89D5RXR","A10JXOU89D5RXR_sheep","sheep",6,178715,2262.20000001788,111,"mirror","wolf",0,1,"CR","wolf"
4,"sheep-and-wolf","10/17/2023","sheep",NA,"A10JXOU89D5RXR","A10JXOU89D5RXR_sheep","sheep",7,186184,1530.19999998808,48,"mirror","dist",0,4,"CR","dist2"
4,"sheep-and-wolf","10/17/2023","sheep",NA,"A10JXOU89D5RXR","A10JXOU89D5RXR_sheep","sheep",8,193198,1077.39999997616,185,"chase","sheep",1,5,"Hit","sheep"
4,"sheep-and-wolf","10/17/2023","sheep",NA,"A10JXOU89D5RXR","A10JXOU89D5RXR_sheep","sheep",9,202077,3487.90000000596,16,"mirror","dist",0,1,"CR","dist3"
4,"sheep-and-wolf","10/17/2023","sheep",NA,"A10JXOU89D5RXR","A10JXOU89D5RXR_sheep","sheep",10,209325,1789.09999999404,34,"chase","sheep",1,2,"Hit","sheep"
4,"sheep-and-wolf","10/17/2023","sheep",NA,"A10JXOU89D5RXR","A10JXOU89D5RXR_sheep","sheep",11,216750,1568.10000002384,42,"chase","sheep",1,5,"Hit","sheep"
4,"sheep-and-wolf","10/17/2023","sheep",NA,"A10JXOU89D5RXR","A10JXOU89D5RXR_sheep","sheep",12,223735,1143.19999998808,262,"chase","sheep",1,4,"Hit","sheep"
4,"sheep-and-wolf","10/17/2023","sheep",NA,"A10JXOU89D5RXR","A10JXOU89D5RXR_sheep","sheep",13,231341,1777.39999997616,41,"chase","sheep",1,4,"Hit","sheep"
4,"sheep-and-wolf","10/17/2023","sheep",NA,"A10JXOU89D5RXR","A10JXOU89D5RXR_sheep","sheep",14,238516,1410.69999998808,269,"chase","sheep",1,4,"Hit","sheep"
4,"sheep-and-wolf","10/17/2023","sheep",NA,"A10JXOU89D5RXR","A10JXOU89D5RXR_sheep","sheep",15,246055,2050.20000001788,195,"mirror","dist",0,1,"CR","dist2"
4,"sheep-and-wolf","10/17/2023","sheep",NA,"A10JXOU89D5RXR","A10JXOU89D5RXR_sheep","sheep",16,252887,1117.29999998212,289,"chase","sheep",1,3,"Hit","sheep"
4,"sheep-and-wolf","10/17/2023","sheep",NA,"A10JXOU89D5RXR","A10JXOU89D5RXR_sheep","sheep",17,261189,2141.09999999404,30,"mirror","dist",0,1,"CR","dist6"
4,"sheep-and-wolf","10/17/2023","sheep",NA,"A10JXOU89D5RXR","A10JXOU89D5RXR_sheep","sheep",18,268043,1464.5,52,"chase","sheep",1,1,"Hit","sheep"
4,"sheep-and-wolf","10/17/2023","sheep",NA,"A10JXOU89D5RXR","A10JXOU89D5RXR_sheep","sheep",19,275198,1249.30000001192,65,"chase","sheep",1,5,"Hit","sheep"
4,"sheep-and-wolf","10/17/2023","sheep",NA,"A10JXOU89D5RXR","A10JXOU89D5RXR_sheep","sheep",20,282514,1529.30000001192,47,"mirror","sheep",1,1,"FA","sheep"
4,"sheep-and-wolf","10/17/2023","sheep",NA,"A10JXOU89D5RXR","A10JXOU89D5RXR_sheep","sheep",21,289530,1596.70000001788,213,"mirror","dist",0,1,"CR","dist6"
4,"sheep-and-wolf","10/17/2023","sheep",NA,"A10JXOU89D5RXR","A10JXOU89D5RXR_sheep","sheep",22,296478,1328.19999998808,247,"mirror","dist",0,1,"CR","dist4"
4,"sheep-and-wolf","10/17/2023","sheep",NA,"A10JXOU89D5RXR","A10JXOU89D5RXR_sheep","sheep",23,303538,1670,29,"mirror","dist",0,1,"CR","dist4"
4,"sheep-and-wolf","10/17/2023","sheep",NA,"A10JXOU89D5RXR","A10JXOU89D5RXR_sheep","sheep",24,311062,2064.59999999404,67,"mirror","dist",0,1,"CR","dist6"
4,"sheep-and-wolf","10/17/2023","sheep",NA,"A10JXOU89D5RXR","A10JXOU89D5RXR_sheep","sheep",25,318191,1726.20000001788,2,"chase","dist",0,1,"Ms","dist1"
4,"sheep-and-wolf","10/17/2023","sheep",NA,"A10JXOU89D5RXR","A10JXOU89D5RXR_sheep","sheep",26,324889,1228.40000000596,219,"mirror","dist",0,1,"CR","dist3"
4,"sheep-and-wolf","10/17/2023","sheep",NA,"A10JXOU89D5RXR","A10JXOU89D5RXR_sheep","sheep",27,331456,1040.70000001788,157,"chase","sheep",1,4,"Hit","sheep"
4,"sheep-and-wolf","10/17/2023","sheep",NA,"A10JXOU89D5RXR","A10JXOU89D5RXR_sheep","sheep",28,340025,3244.59999999404,278,"chase","dist",0,1,"Ms","dist3"
4,"sheep-and-wolf","10/17/2023","sheep",NA,"A10JXOU89D5RXR","A10JXOU89D5RXR_sheep","sheep",29,347124,1477,55,"chase","sheep",1,5,"Hit","sheep"
4,"sheep-and-wolf","10/17/2023","sheep",NA,"A10JXOU89D5RXR","A10JXOU89D5RXR_sheep","sheep",30,354784,2284.59999999404,260,"mirror","dist",0,1,"CR","dist2"
4,"sheep-and-wolf","10/17/2023","sheep",NA,"A10JXOU89D5RXR","A10JXOU89D5RXR_sheep","sheep",31,362042,1546.80000001192,254,"chase","sheep",1,1,"Hit","sheep"
4,"sheep-and-wolf","10/17/2023","sheep",NA,"A10JXOU89D5RXR","A10JXOU89D5RXR_sheep","sheep",32,369224,1912.90000000596,43,"mirror","dist",0,1,"CR","dist2"
4,"sheep-and-wolf","10/17/2023","sheep",NA,"A10JXOU89D5RXR","A10JXOU89D5RXR_sheep","sheep",33,376363,1735.89999997616,226,"mirror","dist",0,1,"CR","dist4"
4,"sheep-and-wolf","10/17/2023","sheep",NA,"A10JXOU89D5RXR","A10JXOU89D5RXR_sheep","sheep",34,383788,1942.19999998808,4,"chase","sheep",1,5,"Hit","sheep"
4,"sheep-and-wolf","10/17/2023","sheep",NA,"A10JXOU89D5RXR","A10JXOU89D5RXR_sheep","sheep",35,390668,1331.90000000596,275,"chase","sheep",1,4,"Hit","sheep"
4,"sheep-and-wolf","10/17/2023","sheep",NA,"A10JXOU89D5RXR","A10JXOU89D5RXR_sheep","sheep",36,398165,2107,257,"mirror","dist",0,1,"CR","dist3"
4,"sheep-and-wolf","10/17/2023","sheep",NA,"A10JXOU89D5RXR","A10JXOU89D5RXR_sheep","sheep",37,405202,1452.59999999404,246,"chase","sheep",1,5,"Hit","sheep"
4,"sheep-and-wolf","10/17/2023","sheep",NA,"A10JXOU89D5RXR","A10JXOU89D5RXR_sheep","sheep",38,412033,1280.89999997616,7,"chase","sheep",1,5,"Hit","sheep"
4,"sheep-and-wolf","10/17/2023","sheep",NA,"A10JXOU89D5RXR","A10JXOU89D5RXR_sheep","sheep",39,419748,2389.89999997616,3,"mirror","dist",0,1,"CR","dist4"
4,"sheep-and-wolf","10/17/2023","sheep",NA,"A10JXOU89D5RXR","A10JXOU89D5RXR_sheep","sheep",40,426340,1171.29999998212,38,"mirror","dist",0,4,"CR","dist5"
4,"sheep-and-wolf","10/17/2023","sheep",NA,"A10JXOU89D5RXR","A10JXOU89D5RXR_sheep","sheep",41,433668,1438.40000000596,59,"mirror","wolf",0,5,"CR","wolf"
4,"sheep-and-wolf","10/17/2023","sheep",NA,"A10JXOU89D5RXR","A10JXOU89D5RXR_sheep","sheep",42,440450,1214,21,"chase","wolf",0,1,"Ms","wolf"
4,"sheep-and-wolf","10/17/2023","sheep",NA,"A10JXOU89D5RXR","A10JXOU89D5RXR_sheep","sheep",43,447526,1264.5,25,"chase","sheep",1,5,"Hit","sheep"
4,"sheep-and-wolf","10/17/2023","sheep",NA,"A10JXOU89D5RXR","A10JXOU89D5RXR_sheep","sheep",44,456785,4017.70000001788,56,"chase","dist",0,1,"Ms","dist4"
4,"sheep-and-wolf","10/17/2023","sheep",NA,"A10JXOU89D5RXR","A10JXOU89D5RXR_sheep","sheep",45,463468,1185.80000001192,288,"chase","sheep",1,4,"Hit","sheep"
4,"sheep-and-wolf","10/17/2023","sheep",NA,"A10JXOU89D5RXR","A10JXOU89D5RXR_sheep","sheep",46,470414,1568.89999997616,227,"chase","sheep",1,3,"Hit","sheep"
4,"sheep-and-wolf","10/17/2023","sheep",NA,"A10JXOU89D5RXR","A10JXOU89D5RXR_sheep","sheep",47,478062,2321,13,"mirror","dist",0,1,"CR","dist2"
4,"sheep-and-wolf","10/17/2023","sheep",NA,"A10JXOU89D5RXR","A10JXOU89D5RXR_sheep","sheep",48,484516,1069.90000000596,255,"mirror","dist",0,2,"CR","dist1"
4,"sheep-and-wolf","10/17/2023","sheep",NA,"A10JXOU89D5RXR","A10JXOU89D5RXR_sheep","sheep",49,491572,1590,5,"chase","sheep",1,4,"Hit","sheep"
4,"sheep-and-wolf","10/17/2023","sheep",NA,"A10JXOU89D5RXR","A10JXOU89D5RXR_sheep","sheep",50,498499,1564.29999998212,64,"mirror","sheep",1,1,"FA","sheep"
4,"sheep-and-wolf","10/17/2023","sheep",NA,"A10JXOU89D5RXR","A10JXOU89D5RXR_sheep","sheep",51,505890,2121.80000001192,192,"mirror","dist",0,1,"CR","dist3"
4,"sheep-and-wolf","10/17/2023","sheep",NA,"A10JXOU89D5RXR","A10JXOU89D5RXR_sheep","sheep",52,514964,3768.09999999404,295,"mirror","dist",0,1,"CR","dist3"
4,"sheep-and-wolf","10/17/2023","sheep",NA,"A10JXOU89D5RXR","A10JXOU89D5RXR_sheep","sheep",53,524435,4273.30000001192,12,"mirror","dist",0,1,"CR","dist2"
4,"sheep-and-wolf","10/17/2023","sheep",NA,"A10JXOU89D5RXR","A10JXOU89D5RXR_sheep","sheep",54,531881,2065.09999999404,270,"chase","dist",0,1,"Ms","dist3"
4,"sheep-and-wolf","10/17/2023","sheep",NA,"A10JXOU89D5RXR","A10JXOU89D5RXR_sheep","sheep",55,540390,3163.59999999404,199,"chase","sheep",1,1,"Hit","sheep"
4,"sheep-and-wolf","10/17/2023","sheep",NA,"A10JXOU89D5RXR","A10JXOU89D5RXR_sheep","sheep",56,547726,1979.20000001788,162,"mirror","wolf",0,1,"CR","wolf"
4,"sheep-and-wolf","10/17/2023","sheep",NA,"A10JXOU89D5RXR","A10JXOU89D5RXR_sheep","sheep",57,555190,1748.60000002384,277,"chase","sheep",1,4,"Hit","sheep"
4,"sheep-and-wolf","10/17/2023","sheep",NA,"A10JXOU89D5RXR","A10JXOU89D5RXR_sheep","sheep",58,562183,1472.80000001192,50,"chase","sheep",1,4,"Hit","sheep"
4,"sheep-and-wolf","10/17/2023","sheep",NA,"A10JXOU89D5RXR","A10JXOU89D5RXR_sheep","sheep",59,570083,2141.29999998212,18,"chase","sheep",1,4,"Hit","sheep"
4,"sheep-and-wolf","10/17/2023","sheep",NA,"A10JXOU89D5RXR","A10JXOU89D5RXR_sheep","sheep",60,577333,1695.5,57,"chase","sheep",1,5,"Hit","sheep"
4,"sheep-and-wolf","10/17/2023","sheep",NA,"A10JXOU89D5RXR","A10JXOU89D5RXR_sheep","sheep",61,584757,2061.90000000596,232,"chase","sheep",1,4,"Hit","sheep"
4,"sheep-and-wolf","10/17/2023","sheep",NA,"A10JXOU89D5RXR","A10JXOU89D5RXR_sheep","sheep",62,591808,1522.5,211,"mirror","dist",0,4,"CR","dist1"
4,"sheep-and-wolf","10/17/2023","sheep",NA,"A10JXOU89D5RXR","A10JXOU89D5RXR_sheep","sheep",63,598849,1602.5,242,"chase","sheep",1,4,"Hit","sheep"
4,"sheep-and-wolf","10/17/2023","sheep",NA,"A10JXOU89D5RXR","A10JXOU89D5RXR_sheep","sheep",64,606664,2399.90000000596,209,"chase","sheep",1,1,"Hit","sheep"
4,"sheep-and-wolf","10/17/2023","sheep",NA,"A10JXOU89D5RXR","A10JXOU89D5RXR_sheep","sheep",65,613994,1931.19999998808,20,"mirror","dist",0,1,"CR","dist5"
4,"sheep-and-wolf","10/17/2023","sheep",NA,"A10JXOU89D5RXR","A10JXOU89D5RXR_sheep","sheep",66,622327,3065.70000001788,63,"mirror","dist",0,1,"CR","dist3"
4,"sheep-and-wolf","10/17/2023","sheep",NA,"A10JXOU89D5RXR","A10JXOU89D5RXR_sheep","sheep",67,629022,1312.5,27,"mirror","dist",0,1,"CR","dist6"
4,"sheep-and-wolf","10/17/2023","sheep",NA,"A10JXOU89D5RXR","A10JXOU89D5RXR_sheep","sheep",68,636058,1142.79999998212,28,"mirror","dist",0,3,"CR","dist2"
4,"sheep-and-wolf","10/17/2023","sheep",NA,"A10JXOU89D5RXR","A10JXOU89D5RXR_sheep","sheep",69,643337,1871,294,"mirror","wolf",0,1,"CR","wolf"
4,"sheep-and-wolf","10/17/2023","sheep",NA,"A10JXOU89D5RXR","A10JXOU89D5RXR_sheep","sheep",70,649985,1245.20000001788,164,"chase","sheep",1,4,"Hit","sheep"
4,"sheep-and-wolf","10/17/2023","wolf",NA,"A10JXOU89D5RXR","A10JXOU89D5RXR_wolf","sheep",1,1091683,1708.80000001192,235,"mirror","dist",0,1,"CR","dist6"
4,"sheep-and-wolf","10/17/2023","wolf",NA,"A10JXOU89D5RXR","A10JXOU89D5RXR_wolf","sheep",2,1098870,1492.69999998808,243,"mirror","dist",0,1,"CR","dist5"
4,"sheep-and-wolf","10/17/2023","wolf",NA,"A10JXOU89D5RXR","A10JXOU89D5RXR_wolf","sheep",3,1106270,1865.89999997616,245,"mirror","sheep",0,1,"CR","sheep"
4,"sheep-and-wolf","10/17/2023","wolf",NA,"A10JXOU89D5RXR","A10JXOU89D5RXR_wolf","sheep",4,1113509,1423.40000000596,229,"chase","wolf",1,5,"Hit","wolf"
4,"sheep-and-wolf","10/17/2023","wolf",NA,"A10JXOU89D5RXR","A10JXOU89D5RXR_wolf","sheep",5,1120602,1621.90000000596,159,"mirror","dist",0,1,"CR","dist6"
4,"sheep-and-wolf","10/17/2023","wolf",NA,"A10JXOU89D5RXR","A10JXOU89D5RXR_wolf","sheep",6,1127421,1343.80000001192,111,"mirror","dist",0,1,"CR","dist1"
4,"sheep-and-wolf","10/17/2023","wolf",NA,"A10JXOU89D5RXR","A10JXOU89D5RXR_wolf","sheep",7,1134503,1420,48,"mirror","wolf",1,1,"FA","wolf"
4,"sheep-and-wolf","10/17/2023","wolf",NA,"A10JXOU89D5RXR","A10JXOU89D5RXR_wolf","sheep",8,1141581,1595.90000000596,185,"chase","wolf",1,4,"Hit","wolf"
4,"sheep-and-wolf","10/17/2023","wolf",NA,"A10JXOU89D5RXR","A10JXOU89D5RXR_wolf","sheep",9,1148280,1329.19999998808,16,"mirror","dist",0,1,"CR","dist1"
4,"sheep-and-wolf","10/17/2023","wolf",NA,"A10JXOU89D5RXR","A10JXOU89D5RXR_wolf","sheep",10,1155010,1284.79999998212,34,"chase","wolf",1,1,"Hit","wolf"
4,"sheep-and-wolf","10/17/2023","wolf",NA,"A10JXOU89D5RXR","A10JXOU89D5RXR_wolf","sheep",11,1163830,3449.19999998808,42,"chase","wolf",1,5,"Hit","wolf"
4,"sheep-and-wolf","10/17/2023","wolf",NA,"A10JXOU89D5RXR","A10JXOU89D5RXR_wolf","sheep",12,1170565,993.59999999404,262,"chase","wolf",1,4,"Hit","wolf"
4,"sheep-and-wolf","10/17/2023","wolf",NA,"A10JXOU89D5RXR","A10JXOU89D5RXR_wolf","sheep",13,1177556,1552.79999998212,41,"chase","wolf",1,3,"Hit","wolf"
4,"sheep-and-wolf","10/17/2023","wolf",NA,"A10JXOU89D5RXR","A10JXOU89D5RXR_wolf","sheep",14,1185627,2594,269,"chase","dist",0,1,"Ms","dist5"
4,"sheep-and-wolf","10/17/2023","wolf",NA,"A10JXOU89D5RXR","A10JXOU89D5RXR_wolf","sheep",15,1192366,1322.30000001192,195,"mirror","dist",0,1,"CR","dist3"
4,"sheep-and-wolf","10/17/2023","wolf",NA,"A10JXOU89D5RXR","A10JXOU89D5RXR_wolf","sheep",16,1199462,1541.69999998808,289,"chase","wolf",1,2,"Hit","wolf"
4,"sheep-and-wolf","10/17/2023","wolf",NA,"A10JXOU89D5RXR","A10JXOU89D5RXR_wolf","sheep",17,1208104,3273.19999998808,30,"mirror","sheep",0,1,"CR","sheep"
4,"sheep-and-wolf","10/17/2023","wolf",NA,"A10JXOU89D5RXR","A10JXOU89D5RXR_wolf","sheep",18,1215472,1984.69999998808,52,"chase","dist",0,1,"Ms","dist2"
4,"sheep-and-wolf","10/17/2023","wolf",NA,"A10JXOU89D5RXR","A10JXOU89D5RXR_wolf","sheep",19,1222256,1346.40000000596,65,"chase","wolf",1,4,"Hit","wolf"
4,"sheep-and-wolf","10/17/2023","wolf",NA,"A10JXOU89D5RXR","A10JXOU89D5RXR_wolf","sheep",20,1229258,1535.79999998212,47,"mirror","dist",0,1,"CR","dist3"
4,"sheep-and-wolf","10/17/2023","wolf",NA,"A10JXOU89D5RXR","A10JXOU89D5RXR_wolf","sheep",21,1235935,1255.59999999404,213,"mirror","dist",0,1,"CR","dist1"
4,"sheep-and-wolf","10/17/2023","wolf",NA,"A10JXOU89D5RXR","A10JXOU89D5RXR_wolf","sheep",22,1243643,2413.09999999404,247,"mirror","dist",0,4,"CR","dist6"
4,"sheep-and-wolf","10/17/2023","wolf",NA,"A10JXOU89D5RXR","A10JXOU89D5RXR_wolf","sheep",23,1251029,1717.59999999404,29,"mirror","dist",0,1,"CR","dist3"
4,"sheep-and-wolf","10/17/2023","wolf",NA,"A10JXOU89D5RXR","A10JXOU89D5RXR_wolf","sheep",24,1258097,1570.5,67,"mirror","sheep",0,2,"CR","sheep"
4,"sheep-and-wolf","10/17/2023","wolf",NA,"A10JXOU89D5RXR","A10JXOU89D5RXR_wolf","sheep",25,1265511,1960.5,2,"chase","dist",0,1,"Ms","dist5"
4,"sheep-and-wolf","10/17/2023","wolf",NA,"A10JXOU89D5RXR","A10JXOU89D5RXR_wolf","sheep",26,1272352,1437.90000000596,219,"mirror","dist",0,1,"CR","dist4"
4,"sheep-and-wolf","10/17/2023","wolf",NA,"A10JXOU89D5RXR","A10JXOU89D5RXR_wolf","sheep",27,1279159,1267.19999998808,157,"chase","wolf",1,4,"Hit","wolf"
4,"sheep-and-wolf","10/17/2023","wolf",NA,"A10JXOU89D5RXR","A10JXOU89D5RXR_wolf","sheep",28,1286153,1633.09999999404,278,"chase","dist",0,1,"Ms","dist2"
4,"sheep-and-wolf","10/17/2023","wolf",NA,"A10JXOU89D5RXR","A10JXOU89D5RXR_wolf","sheep",29,1292944,1209.39999997616,55,"chase","wolf",1,5,"Hit","wolf"
4,"sheep-and-wolf","10/17/2023","wolf",NA,"A10JXOU89D5RXR","A10JXOU89D5RXR_wolf","sheep",30,1299754,1246.79999998212,260,"mirror","sheep",0,1,"CR","sheep"
4,"sheep-and-wolf","10/17/2023","wolf",NA,"A10JXOU89D5RXR","A10JXOU89D5RXR_wolf","sheep",31,1306737,1571.59999999404,254,"chase","wolf",1,1,"Hit","wolf"
4,"sheep-and-wolf","10/17/2023","wolf",NA,"A10JXOU89D5RXR","A10JXOU89D5RXR_wolf","sheep",32,1315789,2968.09999999404,43,"mirror","dist",0,1,"CR","dist3"
4,"sheep-and-wolf","10/17/2023","wolf",NA,"A10JXOU89D5RXR","A10JXOU89D5RXR_wolf","sheep",33,1322924,1707.59999999404,226,"mirror","dist",0,1,"CR","dist1"
4,"sheep-and-wolf","10/17/2023","wolf",NA,"A10JXOU89D5RXR","A10JXOU89D5RXR_wolf","sheep",34,1329823,1386.29999998212,4,"chase","wolf",1,5,"Hit","wolf"
4,"sheep-and-wolf","10/17/2023","wolf",NA,"A10JXOU89D5RXR","A10JXOU89D5RXR_wolf","sheep",35,1336731,1533.79999998212,275,"chase","wolf",1,1,"Hit","wolf"
4,"sheep-and-wolf","10/17/2023","wolf",NA,"A10JXOU89D5RXR","A10JXOU89D5RXR_wolf","sheep",36,1343323,1160.59999999404,257,"mirror","dist",0,1,"CR","dist1"
4,"sheep-and-wolf","10/17/2023","wolf",NA,"A10JXOU89D5RXR","A10JXOU89D5RXR_wolf","sheep",37,1350112,1331.70000001788,246,"chase","wolf",1,5,"Hit","wolf"
4,"sheep-and-wolf","10/17/2023","wolf",NA,"A10JXOU89D5RXR","A10JXOU89D5RXR_wolf","sheep",38,1356811,1229.5,7,"chase","wolf",1,4,"Hit","wolf"
4,"sheep-and-wolf","10/17/2023","wolf",NA,"A10JXOU89D5RXR","A10JXOU89D5RXR_wolf","sheep",39,1364557,2116,3,"mirror","dist",0,2,"CR","dist4"
4,"sheep-and-wolf","10/17/2023","wolf",NA,"A10JXOU89D5RXR","A10JXOU89D5RXR_wolf","sheep",40,1373070,3045.09999999404,38,"mirror","dist",0,1,"CR","dist5"
4,"sheep-and-wolf","10/17/2023","wolf",NA,"A10JXOU89D5RXR","A10JXOU89D5RXR_wolf","sheep",41,1379992,1041.40000000596,59,"mirror","dist",0,4,"CR","dist4"
4,"sheep-and-wolf","10/17/2023","wolf",NA,"A10JXOU89D5RXR","A10JXOU89D5RXR_wolf","sheep",42,1388390,2955.29999998212,21,"chase","dist",0,1,"Ms","dist1"
4,"sheep-and-wolf","10/17/2023","wolf",NA,"A10JXOU89D5RXR","A10JXOU89D5RXR_wolf","sheep",43,1395941,2170.39999997616,25,"chase","dist",0,1,"Ms","dist1"
4,"sheep-and-wolf","10/17/2023","wolf",NA,"A10JXOU89D5RXR","A10JXOU89D5RXR_wolf","sheep",44,1402809,1329.59999999404,56,"chase","wolf",1,3,"Hit","wolf"
4,"sheep-and-wolf","10/17/2023","wolf",NA,"A10JXOU89D5RXR","A10JXOU89D5RXR_wolf","sheep",45,1409808,1473.09999999404,288,"chase","wolf",1,2,"Hit","wolf"
4,"sheep-and-wolf","10/17/2023","wolf",NA,"A10JXOU89D5RXR","A10JXOU89D5RXR_wolf","sheep",46,1416633,901.600000023842,227,"chase","dist",0,1,"Ms","dist5"
4,"sheep-and-wolf","10/17/2023","wolf",NA,"A10JXOU89D5RXR","A10JXOU89D5RXR_wolf","sheep",47,1423824,1721,13,"mirror","dist",0,1,"CR","dist6"
4,"sheep-and-wolf","10/17/2023","wolf",NA,"A10JXOU89D5RXR","A10JXOU89D5RXR_wolf","sheep",48,1431195,1881.09999999404,255,"mirror","dist",0,1,"CR","dist2"
4,"sheep-and-wolf","10/17/2023","wolf",NA,"A10JXOU89D5RXR","A10JXOU89D5RXR_wolf","sheep",49,1438413,1591.90000000596,5,"chase","wolf",1,4,"Hit","wolf"
4,"sheep-and-wolf","10/17/2023","wolf",NA,"A10JXOU89D5RXR","A10JXOU89D5RXR_wolf","sheep",50,1446218,1779.90000000596,64,"mirror","sheep",0,1,"CR","sheep"
4,"sheep-and-wolf","10/17/2023","wolf",NA,"A10JXOU89D5RXR","A10JXOU89D5RXR_wolf","sheep",51,1453385,1758.70000001788,192,"mirror","dist",0,1,"CR","dist1"
4,"sheep-and-wolf","10/17/2023","wolf",NA,"A10JXOU89D5RXR","A10JXOU89D5RXR_wolf","sheep",52,1460289,1370.5,295,"mirror","sheep",0,1,"CR","sheep"
4,"sheep-and-wolf","10/17/2023","wolf",NA,"A10JXOU89D5RXR","A10JXOU89D5RXR_wolf","sheep",53,1467570,1323.29999998212,12,"mirror","dist",0,3,"CR","dist4"
4,"sheep-and-wolf","10/17/2023","wolf",NA,"A10JXOU89D5RXR","A10JXOU89D5RXR_wolf","sheep",54,1474509,1451.19999998808,270,"chase","dist",0,1,"Ms","dist4"
4,"sheep-and-wolf","10/17/2023","wolf",NA,"A10JXOU89D5RXR","A10JXOU89D5RXR_wolf","sheep",55,1481387,1401.19999998808,199,"chase","dist",0,1,"Ms","dist2"
4,"sheep-and-wolf","10/17/2023","wolf",NA,"A10JXOU89D5RXR","A10JXOU89D5RXR_wolf","sheep",56,1488414,1314.09999999404,162,"mirror","dist",0,1,"CR","dist3"
4,"sheep-and-wolf","10/17/2023","wolf",NA,"A10JXOU89D5RXR","A10JXOU89D5RXR_wolf","sheep",57,1495112,1363.30000001192,277,"chase","dist",0,1,"Ms","dist5"
4,"sheep-and-wolf","10/17/2023","wolf",NA,"A10JXOU89D5RXR","A10JXOU89D5RXR_wolf","sheep",58,1501686,1132.40000000596,50,"chase","dist",0,1,"Ms","dist3"
4,"sheep-and-wolf","10/17/2023","wolf",NA,"A10JXOU89D5RXR","A10JXOU89D5RXR_wolf","sheep",59,1509122,1940.20000001788,18,"chase","dist",0,1,"Ms","dist3"
4,"sheep-and-wolf","10/17/2023","wolf",NA,"A10JXOU89D5RXR","A10JXOU89D5RXR_wolf","sheep",60,1516121,1340.5,57,"chase","wolf",1,5,"Hit","wolf"
4,"sheep-and-wolf","10/17/2023","wolf",NA,"A10JXOU89D5RXR","A10JXOU89D5RXR_wolf","sheep",61,1523292,1769.90000000596,232,"chase","dist",0,1,"Ms","dist1"
4,"sheep-and-wolf","10/17/2023","wolf",NA,"A10JXOU89D5RXR","A10JXOU89D5RXR_wolf","sheep",62,1530458,1369,211,"mirror","dist",0,5,"CR","dist6"
4,"sheep-and-wolf","10/17/2023","wolf",NA,"A10JXOU89D5RXR","A10JXOU89D5RXR_wolf","sheep",63,1537240,1261.20000001788,242,"chase","wolf",1,5,"Hit","wolf"
4,"sheep-and-wolf","10/17/2023","wolf",NA,"A10JXOU89D5RXR","A10JXOU89D5RXR_wolf","sheep",64,1544318,1677.5,209,"chase","dist",0,1,"Ms","dist5"
4,"sheep-and-wolf","10/17/2023","wolf",NA,"A10JXOU89D5RXR","A10JXOU89D5RXR_wolf","sheep",65,1551038,1278.70000001788,20,"mirror","dist",0,1,"CR","dist6"
4,"sheep-and-wolf","10/17/2023","wolf",NA,"A10JXOU89D5RXR","A10JXOU89D5RXR_wolf","sheep",66,1557860,1422.40000000596,63,"mirror","dist",0,1,"CR","dist4"
4,"sheep-and-wolf","10/17/2023","wolf",NA,"A10JXOU89D5RXR","A10JXOU89D5RXR_wolf","sheep",67,1564789,1555.09999999404,27,"mirror","dist",0,3,"CR","dist5"
4,"sheep-and-wolf","10/17/2023","wolf",NA,"A10JXOU89D5RXR","A10JXOU89D5RXR_wolf","sheep",68,1572029,1558.30000001192,28,"mirror","wolf",1,1,"FA","wolf"
4,"sheep-and-wolf","10/17/2023","wolf",NA,"A10JXOU89D5RXR","A10JXOU89D5RXR_wolf","sheep",69,1579290,1818,294,"mirror","dist",0,1,"CR","dist5"
4,"sheep-and-wolf","10/17/2023","wolf",NA,"A10JXOU89D5RXR","A10JXOU89D5RXR_wolf","sheep",70,1585915,1100.69999998808,164,"chase","wolf",1,4,"Hit","wolf"
4,"sheep-and-wolf","10/17/2023","wolf",NA,"A11FRLH5KWRLBV","A11FRLH5KWRLBV_wolf","wolf",1,299738,972.699999999255,118,"chase","wolf",1,5,"Hit","wolf"
4,"sheep-and-wolf","10/17/2023","wolf",NA,"A11FRLH5KWRLBV","A11FRLH5KWRLBV_wolf","wolf",2,306017,943.400000002235,83,"chase","dist",0,2,"Ms","dist1"
4,"sheep-and-wolf","10/17/2023","wolf",NA,"A11FRLH5KWRLBV","A11FRLH5KWRLBV_wolf","wolf",3,312457,1091.89999999851,110,"chase","dist",0,2,"Ms","dist1"
4,"sheep-and-wolf","10/17/2023","wolf",NA,"A11FRLH5KWRLBV","A11FRLH5KWRLBV_wolf","wolf",4,318769,952.79999999702,71,"chase","wolf",1,5,"Hit","wolf"
4,"sheep-and-wolf","10/17/2023","wolf",NA,"A11FRLH5KWRLBV","A11FRLH5KWRLBV_wolf","wolf",5,324904,965.39999999851,9,"chase","wolf",1,5,"Hit","wolf"
4,"sheep-and-wolf","10/17/2023","wolf",NA,"A11FRLH5KWRLBV","A11FRLH5KWRLBV_wolf","wolf",6,332512,2136.5,53,"chase","dist",0,2,"Ms","dist5"
4,"sheep-and-wolf","10/17/2023","wolf",NA,"A11FRLH5KWRLBV","A11FRLH5KWRLBV_wolf","wolf",7,339383,1334.79999999702,143,"mirror","dist",0,2,"CR","dist2"
4,"sheep-and-wolf","10/17/2023","wolf",NA,"A11FRLH5KWRLBV","A11FRLH5KWRLBV_wolf","wolf",8,345742,1028.09999999776,39,"mirror","dist",0,2,"CR","dist4"
4,"sheep-and-wolf","10/17/2023","wolf",NA,"A11FRLH5KWRLBV","A11FRLH5KWRLBV_wolf","wolf",9,353328,1330.30000000075,50,"mirror","wolf",1,2,"FA","wolf"
4,"sheep-and-wolf","10/17/2023","wolf",NA,"A11FRLH5KWRLBV","A11FRLH5KWRLBV_wolf","wolf",10,360086,1515.09999999776,95,"chase","wolf",1,5,"Hit","wolf"
4,"sheep-and-wolf","10/17/2023","wolf",NA,"A11FRLH5KWRLBV","A11FRLH5KWRLBV_wolf","wolf",11,366886,1439.40000000224,128,"mirror","wolf",1,2,"FA","wolf"
4,"sheep-and-wolf","10/17/2023","wolf",NA,"A11FRLH5KWRLBV","A11FRLH5KWRLBV_wolf","wolf",12,373055,753.60000000149,96,"chase","wolf",1,5,"Hit","wolf"
4,"sheep-and-wolf","10/17/2023","wolf",NA,"A11FRLH5KWRLBV","A11FRLH5KWRLBV_wolf","wolf",13,379302,1139.09999999776,140,"mirror","dist",0,5,"CR","dist5"
4,"sheep-and-wolf","10/17/2023","wolf",NA,"A11FRLH5KWRLBV","A11FRLH5KWRLBV_wolf","wolf",14,385453,1019.89999999851,198,"mirror","dist",0,5,"CR","dist5"
4,"sheep-and-wolf","10/17/2023","wolf",NA,"A11FRLH5KWRLBV","A11FRLH5KWRLBV_wolf","wolf",15,391381,688.89999999851,171,"chase","wolf",1,5,"Hit","wolf"
4,"sheep-and-wolf","10/17/2023","wolf",NA,"A11FRLH5KWRLBV","A11FRLH5KWRLBV_wolf","wolf",16,397421,846.599999997765,237,"chase","wolf",1,5,"Hit","wolf"
4,"sheep-and-wolf","10/17/2023","wolf",NA,"A11FRLH5KWRLBV","A11FRLH5KWRLBV_wolf","wolf",17,403428,858.5,260,"chase","wolf",1,5,"Hit","wolf"
4,"sheep-and-wolf","10/17/2023","wolf",NA,"A11FRLH5KWRLBV","A11FRLH5KWRLBV_wolf","wolf",18,410046,847.10000000149,255,"mirror","sheep",0,2,"CR","sheep"
4,"sheep-and-wolf","10/17/2023","wolf",NA,"A11FRLH5KWRLBV","A11FRLH5KWRLBV_wolf","wolf",19,417158,1534.80000000075,24,"mirror","dist",0,2,"CR","dist6"
4,"sheep-and-wolf","10/17/2023","wolf",NA,"A11FRLH5KWRLBV","A11FRLH5KWRLBV_wolf","wolf",20,423610,1025.5,36,"chase","dist",0,2,"Ms","dist2"
4,"sheep-and-wolf","10/17/2023","wolf",NA,"A11FRLH5KWRLBV","A11FRLH5KWRLBV_wolf","wolf",21,430428,1682,162,"chase","wolf",1,5,"Hit","wolf"
4,"sheep-and-wolf","10/17/2023","wolf",NA,"A11FRLH5KWRLBV","A11FRLH5KWRLBV_wolf","wolf",22,436490,802.699999999255,239,"chase","wolf",1,5,"Hit","wolf"
4,"sheep-and-wolf","10/17/2023","wolf",NA,"A11FRLH5KWRLBV","A11FRLH5KWRLBV_wolf","wolf",23,445137,3406.5,177,"mirror","dist",0,2,"CR","dist3"
4,"sheep-and-wolf","10/17/2023","wolf",NA,"A11FRLH5KWRLBV","A11FRLH5KWRLBV_wolf","wolf",24,451362,901.099999997765,254,"chase","wolf",1,5,"Hit","wolf"
4,"sheep-and-wolf","10/17/2023","wolf",NA,"A11FRLH5KWRLBV","A11FRLH5KWRLBV_wolf","wolf",25,457576,943.300000000745,30,"chase","wolf",1,5,"Hit","wolf"
4,"sheep-and-wolf","10/17/2023","wolf",NA,"A11FRLH5KWRLBV","A11FRLH5KWRLBV_wolf","wolf",26,463559,819.60000000149,251,"chase","wolf",1,5,"Hit","wolf"
4,"sheep-and-wolf","10/17/2023","wolf",NA,"A11FRLH5KWRLBV","A11FRLH5KWRLBV_wolf","wolf",27,470520,1748.30000000075,89,"mirror","dist",0,2,"CR","dist3"
4,"sheep-and-wolf","10/17/2023","wolf",NA,"A11FRLH5KWRLBV","A11FRLH5KWRLBV_wolf","wolf",28,479830,2838.19999999925,99,"mirror","dist",0,2,"CR","dist6"
4,"sheep-and-wolf","10/17/2023","wolf",NA,"A11FRLH5KWRLBV","A11FRLH5KWRLBV_wolf","wolf",29,485752,774.5,247,"chase","wolf",1,5,"Hit","wolf"
4,"sheep-and-wolf","10/17/2023","wolf",NA,"A11FRLH5KWRLBV","A11FRLH5KWRLBV_wolf","wolf",30,492065,1112.70000000298,236,"mirror","dist",0,5,"CR","dist4"
4,"sheep-and-wolf","10/17/2023","wolf",NA,"A11FRLH5KWRLBV","A11FRLH5KWRLBV_wolf","wolf",31,498510,1237.80000000075,80,"mirror","dist",0,5,"CR","dist4"
4,"sheep-and-wolf","10/17/2023","wolf",NA,"A11FRLH5KWRLBV","A11FRLH5KWRLBV_wolf","wolf",32,505095,1331.5,231,"chase","sheep",0,2,"Ms","sheep"
4,"sheep-and-wolf","10/17/2023","wolf",NA,"A11FRLH5KWRLBV","A11FRLH5KWRLBV_wolf","wolf",33,511430,1054.89999999851,160,"chase","dist",0,2,"Ms","dist4"
4,"sheep-and-wolf","10/17/2023","wolf",NA,"A11FRLH5KWRLBV","A11FRLH5KWRLBV_wolf","wolf",34,517550,846.800000000745,35,"chase","wolf",1,5,"Hit","wolf"
4,"sheep-and-wolf","10/17/2023","wolf",NA,"A11FRLH5KWRLBV","A11FRLH5KWRLBV_wolf","wolf",35,523862,1123.30000000075,29,"mirror","dist",0,2,"CR","dist2"
4,"sheep-and-wolf","10/17/2023","wolf",NA,"A11FRLH5KWRLBV","A11FRLH5KWRLBV_wolf","wolf",36,530189,1154.10000000149,189,"chase","wolf",1,5,"Hit","wolf"
4,"sheep-and-wolf","10/17/2023","wolf",NA,"A11FRLH5KWRLBV","A11FRLH5KWRLBV_wolf","wolf",37,536540,1132.80000000075,230,"mirror","dist",0,5,"CR","dist5"
4,"sheep-and-wolf","10/17/2023","wolf",NA,"A11FRLH5KWRLBV","A11FRLH5KWRLBV_wolf","wolf",38,542604,813,170,"chase","wolf",1,5,"Hit","wolf"
4,"sheep-and-wolf","10/17/2023","wolf",NA,"A11FRLH5KWRLBV","A11FRLH5KWRLBV_wolf","wolf",39,549540,777.39999999851,164,"mirror","dist",0,2,"CR","dist5"
4,"sheep-and-wolf","10/17/2023","wolf",NA,"A11FRLH5KWRLBV","A11FRLH5KWRLBV_wolf","wolf",40,555370,606.300000000745,242,"chase","wolf",1,5,"Hit","wolf"
4,"sheep-and-wolf","10/17/2023","wolf",NA,"A11FRLH5KWRLBV","A11FRLH5KWRLBV_wolf","wolf",41,561299,762.400000002235,250,"chase","wolf",1,5,"Hit","wolf"
4,"sheep-and-wolf","10/17/2023","wolf",NA,"A11FRLH5KWRLBV","A11FRLH5KWRLBV_wolf","wolf",42,567403,903.300000000745,3,"chase","wolf",1,5,"Hit","wolf"
4,"sheep-and-wolf","10/17/2023","wolf",NA,"A11FRLH5KWRLBV","A11FRLH5KWRLBV_wolf","wolf",43,573931,1311.10000000149,194,"chase","dist",0,2,"Ms","dist4"
4,"sheep-and-wolf","10/17/2023","wolf",NA,"A11FRLH5KWRLBV","A11FRLH5KWRLBV_wolf","wolf",44,580043,953.60000000149,174,"chase","wolf",1,5,"Hit","wolf"
4,"sheep-and-wolf","10/17/2023","wolf",NA,"A11FRLH5KWRLBV","A11FRLH5KWRLBV_wolf","wolf",45,585986,809.5,115,"chase","wolf",1,5,"Hit","wolf"
4,"sheep-and-wolf","10/17/2023","wolf",NA,"A11FRLH5KWRLBV","A11FRLH5KWRLBV_wolf","wolf",46,592224,897.89999999851,41,"chase","sheep",0,2,"Ms","sheep"
4,"sheep-and-wolf","10/17/2023","wolf",NA,"A11FRLH5KWRLBV","A11FRLH5KWRLBV_wolf","wolf",47,598978,1248.59999999776,168,"mirror","dist",0,3,"CR","dist1"
4,"sheep-and-wolf","10/17/2023","wolf",NA,"A11FRLH5KWRLBV","A11FRLH5KWRLBV_wolf","wolf",48,605545,1414,52,"chase","wolf",1,5,"Hit","wolf"
4,"sheep-and-wolf","10/17/2023","wolf",NA,"A11FRLH5KWRLBV","A11FRLH5KWRLBV_wolf","wolf",49,612065,1412.80000000075,234,"mirror","dist",0,2,"CR","dist2"
4,"sheep-and-wolf","10/17/2023","wolf",NA,"A11FRLH5KWRLBV","A11FRLH5KWRLBV_wolf","wolf",50,618017,805,33,"chase","wolf",1,5,"Hit","wolf"
4,"sheep-and-wolf","10/17/2023","wolf",NA,"A11FRLH5KWRLBV","A11FRLH5KWRLBV_wolf","wolf",51,625703,2543.70000000298,155,"mirror","dist",0,2,"CR","dist1"
4,"sheep-and-wolf","10/17/2023","wolf",NA,"A11FRLH5KWRLBV","A11FRLH5KWRLBV_wolf","wolf",52,633056,977.5,165,"mirror","dist",0,3,"CR","dist3"
4,"sheep-and-wolf","10/17/2023","wolf",NA,"A11FRLH5KWRLBV","A11FRLH5KWRLBV_wolf","wolf",53,639472,1148.5,228,"chase","wolf",1,5,"Hit","wolf"
4,"sheep-and-wolf","10/17/2023","wolf",NA,"A11FRLH5KWRLBV","A11FRLH5KWRLBV_wolf","wolf",54,645359,672.39999999851,183,"chase","wolf",1,5,"Hit","wolf"
4,"sheep-and-wolf","10/17/2023","wolf",NA,"A11FRLH5KWRLBV","A11FRLH5KWRLBV_wolf","wolf",55,651455,869.400000002235,259,"mirror","dist",0,5,"CR","dist2"
4,"sheep-and-wolf","10/17/2023","wolf",NA,"A11FRLH5KWRLBV","A11FRLH5KWRLBV_wolf","wolf",56,657998,1367,97,"mirror","dist",0,2,"CR","dist4"
4,"sheep-and-wolf","10/17/2023","wolf",NA,"A11FRLH5KWRLBV","A11FRLH5KWRLBV_wolf","wolf",57,666132,2959.40000000224,79,"mirror","dist",0,2,"CR","dist2"
4,"sheep-and-wolf","10/17/2023","wolf",NA,"A11FRLH5KWRLBV","A11FRLH5KWRLBV_wolf","wolf",58,672829,1576.10000000149,105,"mirror","dist",0,2,"CR","dist3"
4,"sheep-and-wolf","10/17/2023","wolf",NA,"A11FRLH5KWRLBV","A11FRLH5KWRLBV_wolf","wolf",59,678956,1007.30000000075,203,"mirror","dist",0,2,"CR","dist6"
4,"sheep-and-wolf","10/17/2023","wolf",NA,"A11FRLH5KWRLBV","A11FRLH5KWRLBV_wolf","wolf",60,686510,1067.10000000149,8,"mirror","dist",0,2,"CR","dist6"
4,"sheep-and-wolf","10/17/2023","wolf",NA,"A11FRLH5KWRLBV","A11FRLH5KWRLBV_wolf","wolf",61,693405,1094.09999999776,146,"mirror","dist",0,3,"CR","dist2"
4,"sheep-and-wolf","10/17/2023","wolf",NA,"A11FRLH5KWRLBV","A11FRLH5KWRLBV_wolf","wolf",62,699334,720.099999997765,19,"mirror","dist",0,5,"CR","dist6"
4,"sheep-and-wolf","10/17/2023","wolf",NA,"A11FRLH5KWRLBV","A11FRLH5KWRLBV_wolf","wolf",63,706055,1567.39999999851,186,"mirror","wolf",1,2,"FA","wolf"
4,"sheep-and-wolf","10/17/2023","wolf",NA,"A11FRLH5KWRLBV","A11FRLH5KWRLBV_wolf","wolf",64,713328,1149.29999999702,253,"mirror","dist",0,5,"CR","dist5"
4,"sheep-and-wolf","10/17/2023","wolf",NA,"A11FRLH5KWRLBV","A11FRLH5KWRLBV_wolf","wolf",65,720435,1918.40000000224,240,"mirror","dist",0,2,"CR","dist2"
4,"sheep-and-wolf","10/17/2023","wolf",NA,"A11FRLH5KWRLBV","A11FRLH5KWRLBV_wolf","wolf",66,726993,1359,32,"mirror","sheep",0,2,"CR","sheep"
4,"sheep-and-wolf","10/17/2023","wolf",NA,"A11FRLH5KWRLBV","A11FRLH5KWRLBV_wolf","wolf",67,733449,1273.39999999851,125,"mirror","dist",0,2,"CR","dist6"
4,"sheep-and-wolf","10/17/2023","wolf",NA,"A11FRLH5KWRLBV","A11FRLH5KWRLBV_wolf","wolf",68,740160,1480,261,"mirror","dist",0,2,"CR","dist5"
4,"sheep-and-wolf","10/17/2023","wolf",NA,"A11FRLH5KWRLBV","A11FRLH5KWRLBV_wolf","wolf",69,746353,1037.5,114,"mirror","dist",0,2,"CR","dist6"
4,"sheep-and-wolf","10/17/2023","wolf",NA,"A11FRLH5KWRLBV","A11FRLH5KWRLBV_wolf","wolf",70,752393,828,49,"chase","wolf",1,5,"Hit","wolf"
4,"sheep-and-wolf","10/17/2023","sheep",NA,"A11FRLH5KWRLBV","A11FRLH5KWRLBV_sheep","wolf",1,1601697,840.5,118,"chase","sheep",1,4,"Hit","sheep"
4,"sheep-and-wolf","10/17/2023","sheep",NA,"A11FRLH5KWRLBV","A11FRLH5KWRLBV_sheep","wolf",2,1608314,1452.59999999776,83,"chase","sheep",1,4,"Hit","sheep"
4,"sheep-and-wolf","10/17/2023","sheep",NA,"A11FRLH5KWRLBV","A11FRLH5KWRLBV_sheep","wolf",3,1614234,721,110,"chase","sheep",1,4,"Hit","sheep"
4,"sheep-and-wolf","10/17/2023","sheep",NA,"A11FRLH5KWRLBV","A11FRLH5KWRLBV_sheep","wolf",4,1620040,639.699999999255,71,"chase","sheep",1,4,"Hit","sheep"
4,"sheep-and-wolf","10/17/2023","sheep",NA,"A11FRLH5KWRLBV","A11FRLH5KWRLBV_sheep","wolf",5,1626001,818.60000000149,9,"chase","sheep",1,4,"Hit","sheep"
4,"sheep-and-wolf","10/17/2023","sheep",NA,"A11FRLH5KWRLBV","A11FRLH5KWRLBV_sheep","wolf",6,1633335,1692.90000000224,53,"chase","dist",0,1,"Ms","dist2"
4,"sheep-and-wolf","10/17/2023","sheep",NA,"A11FRLH5KWRLBV","A11FRLH5KWRLBV_sheep","wolf",7,1640576,1880.90000000224,143,"mirror","dist",0,1,"CR","dist4"
4,"sheep-and-wolf","10/17/2023","sheep",NA,"A11FRLH5KWRLBV","A11FRLH5KWRLBV_sheep","wolf",8,1647424,1689.19999999925,39,"mirror","dist",0,1,"CR","dist5"
4,"sheep-and-wolf","10/17/2023","sheep",NA,"A11FRLH5KWRLBV","A11FRLH5KWRLBV_sheep","wolf",9,1653999,1206.89999999851,50,"mirror","dist",0,1,"CR","dist4"
4,"sheep-and-wolf","10/17/2023","sheep",NA,"A11FRLH5KWRLBV","A11FRLH5KWRLBV_sheep","wolf",10,1659941,739,95,"chase","sheep",1,4,"Hit","sheep"
4,"sheep-and-wolf","10/17/2023","sheep",NA,"A11FRLH5KWRLBV","A11FRLH5KWRLBV_sheep","wolf",11,1668774,3455.80000000075,128,"mirror","sheep",1,1,"FA","sheep"
4,"sheep-and-wolf","10/17/2023","sheep",NA,"A11FRLH5KWRLBV","A11FRLH5KWRLBV_sheep","wolf",12,1675340,1054.69999999925,96,"chase","sheep",1,1,"Hit","sheep"
4,"sheep-and-wolf","10/17/2023","sheep",NA,"A11FRLH5KWRLBV","A11FRLH5KWRLBV_sheep","wolf",13,1681847,1266.5,140,"mirror","dist",0,1,"CR","dist6"
4,"sheep-and-wolf","10/17/2023","sheep",NA,"A11FRLH5KWRLBV","A11FRLH5KWRLBV_sheep","wolf",14,1688190,1153.19999999925,198,"mirror","dist",0,1,"CR","dist1"
4,"sheep-and-wolf","10/17/2023","sheep",NA,"A11FRLH5KWRLBV","A11FRLH5KWRLBV_sheep","wolf",15,1694094,733.699999999255,171,"chase","sheep",1,4,"Hit","sheep"
4,"sheep-and-wolf","10/17/2023","sheep",NA,"A11FRLH5KWRLBV","A11FRLH5KWRLBV_sheep","wolf",16,1700413,1186.60000000149,237,"chase","sheep",1,4,"Hit","sheep"
4,"sheep-and-wolf","10/17/2023","sheep",NA,"A11FRLH5KWRLBV","A11FRLH5KWRLBV_sheep","wolf",17,1707067,1489.30000000075,260,"chase","sheep",1,4,"Hit","sheep"
4,"sheep-and-wolf","10/17/2023","sheep",NA,"A11FRLH5KWRLBV","A11FRLH5KWRLBV_sheep","wolf",18,1713323,940.5,255,"mirror","dist",0,1,"CR","dist1"
4,"sheep-and-wolf","10/17/2023","sheep",NA,"A11FRLH5KWRLBV","A11FRLH5KWRLBV_sheep","wolf",19,1719316,891.39999999851,24,"mirror","dist",0,1,"CR","dist6"
4,"sheep-and-wolf","10/17/2023","sheep",NA,"A11FRLH5KWRLBV","A11FRLH5KWRLBV_sheep","wolf",20,1725460,1066.30000000075,36,"chase","dist",0,1,"Ms","dist6"
4,"sheep-and-wolf","10/17/2023","sheep",NA,"A11FRLH5KWRLBV","A11FRLH5KWRLBV_sheep","wolf",21,1732042,1351.60000000149,162,"chase","sheep",1,4,"Hit","sheep"
4,"sheep-and-wolf","10/17/2023","sheep",NA,"A11FRLH5KWRLBV","A11FRLH5KWRLBV_sheep","wolf",22,1738994,1871.89999999851,239,"chase","dist",0,1,"Ms","dist3"
4,"sheep-and-wolf","10/17/2023","sheep",NA,"A11FRLH5KWRLBV","A11FRLH5KWRLBV_sheep","wolf",23,1746154,1991.30000000075,177,"mirror","dist",0,1,"CR","dist3"
4,"sheep-and-wolf","10/17/2023","sheep",NA,"A11FRLH5KWRLBV","A11FRLH5KWRLBV_sheep","wolf",24,1752578,1081.80000000075,254,"chase","sheep",1,4,"Hit","sheep"
4,"sheep-and-wolf","10/17/2023","sheep",NA,"A11FRLH5KWRLBV","A11FRLH5KWRLBV_sheep","wolf",25,1758706,904.60000000149,30,"chase","sheep",1,4,"Hit","sheep"
4,"sheep-and-wolf","10/17/2023","sheep",NA,"A11FRLH5KWRLBV","A11FRLH5KWRLBV_sheep","wolf",26,1764818,971.099999997765,251,"chase","sheep",1,4,"Hit","sheep"
4,"sheep-and-wolf","10/17/2023","sheep",NA,"A11FRLH5KWRLBV","A11FRLH5KWRLBV_sheep","wolf",27,1772714,1944.90000000224,89,"mirror","dist",0,1,"CR","dist3"
4,"sheep-and-wolf","10/17/2023","sheep",NA,"A11FRLH5KWRLBV","A11FRLH5KWRLBV_sheep","wolf",28,1780920,3106,99,"mirror","dist",0,1,"CR","dist2"
4,"sheep-and-wolf","10/17/2023","sheep",NA,"A11FRLH5KWRLBV","A11FRLH5KWRLBV_sheep","wolf",29,1786817,736.699999999255,247,"chase","sheep",1,4,"Hit","sheep"
4,"sheep-and-wolf","10/17/2023","sheep",NA,"A11FRLH5KWRLBV","A11FRLH5KWRLBV_sheep","wolf",30,1793213,1129.5,236,"mirror","dist",0,4,"CR","dist3"
4,"sheep-and-wolf","10/17/2023","sheep",NA,"A11FRLH5KWRLBV","A11FRLH5KWRLBV_sheep","wolf",31,1799856,1351.39999999851,80,"mirror","dist",0,4,"CR","dist5"
4,"sheep-and-wolf","10/17/2023","sheep",NA,"A11FRLH5KWRLBV","A11FRLH5KWRLBV_sheep","wolf",32,1805919,847.599999997765,231,"chase","sheep",1,4,"Hit","sheep"
4,"sheep-and-wolf","10/17/2023","sheep",NA,"A11FRLH5KWRLBV","A11FRLH5KWRLBV_sheep","wolf",33,1812134,973.10000000149,160,"chase","sheep",1,4,"Hit","sheep"
4,"sheep-and-wolf","10/17/2023","sheep",NA,"A11FRLH5KWRLBV","A11FRLH5KWRLBV_sheep","wolf",34,1818983,1656.40000000224,35,"chase","dist",0,1,"Ms","dist2"
4,"sheep-and-wolf","10/17/2023","sheep",NA,"A11FRLH5KWRLBV","A11FRLH5KWRLBV_sheep","wolf",35,1825299,1149,29,"mirror","dist",0,1,"CR","dist2"
4,"sheep-and-wolf","10/17/2023","sheep",NA,"A11FRLH5KWRLBV","A11FRLH5KWRLBV_sheep","wolf",36,1831765,1227.10000000149,189,"chase","dist",0,1,"Ms","dist1"
4,"sheep-and-wolf","10/17/2023","sheep",NA,"A11FRLH5KWRLBV","A11FRLH5KWRLBV_sheep","wolf",37,1838356,892.39999999851,230,"mirror","dist",0,1,"CR","dist3"
4,"sheep-and-wolf","10/17/2023","sheep",NA,"A11FRLH5KWRLBV","A11FRLH5KWRLBV_sheep","wolf",38,1844588,996.599999997765,170,"chase","sheep",1,4,"Hit","sheep"
4,"sheep-and-wolf","10/17/2023","sheep",NA,"A11FRLH5KWRLBV","A11FRLH5KWRLBV_sheep","wolf",39,1850603,944.89999999851,164,"mirror","dist",0,1,"CR","dist5"
4,"sheep-and-wolf","10/17/2023","sheep",NA,"A11FRLH5KWRLBV","A11FRLH5KWRLBV_sheep","wolf",40,1856550,695.70000000298,242,"chase","sheep",1,1,"Hit","sheep"
4,"sheep-and-wolf","10/17/2023","sheep",NA,"A11FRLH5KWRLBV","A11FRLH5KWRLBV_sheep","wolf",41,1862365,623,250,"chase","sheep",1,1,"Hit","sheep"
4,"sheep-and-wolf","10/17/2023","sheep",NA,"A11FRLH5KWRLBV","A11FRLH5KWRLBV_sheep","wolf",42,1869722,2153.69999999925,3,"chase","sheep",1,4,"Hit","sheep"
4,"sheep-and-wolf","10/17/2023","sheep",NA,"A11FRLH5KWRLBV","A11FRLH5KWRLBV_sheep","wolf",43,1876051,1119.69999999925,194,"chase","sheep",1,4,"Hit","sheep"
4,"sheep-and-wolf","10/17/2023","sheep",NA,"A11FRLH5KWRLBV","A11FRLH5KWRLBV_sheep","wolf",44,1882061,746.5,174,"chase","sheep",1,4,"Hit","sheep"
4,"sheep-and-wolf","10/17/2023","sheep",NA,"A11FRLH5KWRLBV","A11FRLH5KWRLBV_sheep","wolf",45,1888293,971.5,115,"chase","sheep",1,4,"Hit","sheep"
4,"sheep-and-wolf","10/17/2023","sheep",NA,"A11FRLH5KWRLBV","A11FRLH5KWRLBV_sheep","wolf",46,1894218,738.300000000745,41,"chase","dist",0,4,"Ms","dist3"
4,"sheep-and-wolf","10/17/2023","sheep",NA,"A11FRLH5KWRLBV","A11FRLH5KWRLBV_sheep","wolf",47,1901393,1984.70000000298,168,"mirror","dist",0,4,"CR","dist4"
4,"sheep-and-wolf","10/17/2023","sheep",NA,"A11FRLH5KWRLBV","A11FRLH5KWRLBV_sheep","wolf",48,1907545,948.300000000745,52,"chase","sheep",1,4,"Hit","sheep"
4,"sheep-and-wolf","10/17/2023","sheep",NA,"A11FRLH5KWRLBV","A11FRLH5KWRLBV_sheep","wolf",49,1913786,1034.29999999702,234,"mirror","dist",0,4,"CR","dist2"
4,"sheep-and-wolf","10/17/2023","sheep",NA,"A11FRLH5KWRLBV","A11FRLH5KWRLBV_sheep","wolf",50,1920073,1113,33,"chase","sheep",1,1,"Hit","sheep"
4,"sheep-and-wolf","10/17/2023","sheep",NA,"A11FRLH5KWRLBV","A11FRLH5KWRLBV_sheep","wolf",51,1926332,1129.39999999851,155,"mirror","wolf",0,1,"CR","wolf"
4,"sheep-and-wolf","10/17/2023","sheep",NA,"A11FRLH5KWRLBV","A11FRLH5KWRLBV_sheep","wolf",52,1932364,831.5,165,"mirror","dist",0,1,"CR","dist4"
4,"sheep-and-wolf","10/17/2023","sheep",NA,"A11FRLH5KWRLBV","A11FRLH5KWRLBV_sheep","wolf",53,1939390,1062.80000000075,228,"chase","dist",0,1,"Ms","dist2"
4,"sheep-and-wolf","10/17/2023","sheep",NA,"A11FRLH5KWRLBV","A11FRLH5KWRLBV_sheep","wolf",54,1945464,891.800000000745,183,"chase","sheep",1,4,"Hit","sheep"
4,"sheep-and-wolf","10/17/2023","sheep",NA,"A11FRLH5KWRLBV","A11FRLH5KWRLBV_sheep","wolf",55,1953678,2482,259,"mirror","dist",0,1,"CR","dist6"
4,"sheep-and-wolf","10/17/2023","sheep",NA,"A11FRLH5KWRLBV","A11FRLH5KWRLBV_sheep","wolf",56,1960262,1112.79999999702,97,"mirror","wolf",0,1,"CR","wolf"
4,"sheep-and-wolf","10/17/2023","sheep",NA,"A11FRLH5KWRLBV","A11FRLH5KWRLBV_sheep","wolf",57,1967885,2291.5,79,"mirror","dist",0,1,"CR","dist6"
4,"sheep-and-wolf","10/17/2023","sheep",NA,"A11FRLH5KWRLBV","A11FRLH5KWRLBV_sheep","wolf",58,1975246,2190.5,105,"mirror","dist",0,1,"CR","dist4"
4,"sheep-and-wolf","10/17/2023","sheep",NA,"A11FRLH5KWRLBV","A11FRLH5KWRLBV_sheep","wolf",59,1981005,620.60000000149,203,"mirror","dist",0,1,"CR","dist1"
4,"sheep-and-wolf","10/17/2023","sheep",NA,"A11FRLH5KWRLBV","A11FRLH5KWRLBV_sheep","wolf",60,1987156,865.599999997765,8,"mirror","sheep",1,1,"FA","sheep"
4,"sheep-and-wolf","10/17/2023","sheep",NA,"A11FRLH5KWRLBV","A11FRLH5KWRLBV_sheep","wolf",61,1993569,1190.20000000298,146,"mirror","sheep",1,1,"FA","sheep"
4,"sheep-and-wolf","10/17/2023","sheep",NA,"A11FRLH5KWRLBV","A11FRLH5KWRLBV_sheep","wolf",62,2000148,906.900000002235,19,"mirror","dist",0,4,"CR","dist5"
4,"sheep-and-wolf","10/17/2023","sheep",NA,"A11FRLH5KWRLBV","A11FRLH5KWRLBV_sheep","wolf",63,2006283,1011.69999999925,186,"mirror","dist",0,1,"CR","dist6"
4,"sheep-and-wolf","10/17/2023","sheep",NA,"A11FRLH5KWRLBV","A11FRLH5KWRLBV_sheep","wolf",64,2013474,2019.19999999925,253,"mirror","dist",0,1,"CR","dist4"
4,"sheep-and-wolf","10/17/2023","sheep",NA,"A11FRLH5KWRLBV","A11FRLH5KWRLBV_sheep","wolf",65,2021137,2470.10000000149,240,"mirror","sheep",1,1,"FA","sheep"
4,"sheep-and-wolf","10/17/2023","sheep",NA,"A11FRLH5KWRLBV","A11FRLH5KWRLBV_sheep","wolf",66,2027456,1222.90000000224,32,"mirror","dist",0,1,"CR","dist5"
4,"sheep-and-wolf","10/17/2023","sheep",NA,"A11FRLH5KWRLBV","A11FRLH5KWRLBV_sheep","wolf",67,2034159,1412.5,125,"mirror","dist",0,1,"CR","dist2"
4,"sheep-and-wolf","10/17/2023","sheep",NA,"A11FRLH5KWRLBV","A11FRLH5KWRLBV_sheep","wolf",68,2040217,856.70000000298,261,"mirror","dist",0,1,"CR","dist4"
4,"sheep-and-wolf","10/17/2023","sheep",NA,"A11FRLH5KWRLBV","A11FRLH5KWRLBV_sheep","wolf",69,2046735,1266.19999999925,114,"mirror","dist",0,1,"CR","dist6"
4,"sheep-and-wolf","10/17/2023","sheep",NA,"A11FRLH5KWRLBV","A11FRLH5KWRLBV_sheep","wolf",70,2052800,865.5,49,"chase","sheep",1,4,"Hit","sheep"
4,"sheep-and-wolf","10/17/2023","sheep",NA,"A12Q4BP1S02YWS","A12Q4BP1S02YWS_sheep","sheep",1,149195,2127,6,"chase","dist",0,3,"Ms","dist3"
4,"sheep-and-wolf","10/17/2023","sheep",NA,"A12Q4BP1S02YWS","A12Q4BP1S02YWS_sheep","sheep",2,157326,2419,72,"chase","dist",0,2,"Ms","dist2"
4,"sheep-and-wolf","10/17/2023","sheep",NA,"A12Q4BP1S02YWS","A12Q4BP1S02YWS_sheep","sheep",3,168678,5772,38,"chase","sheep",1,3,"Hit","sheep"
4,"sheep-and-wolf","10/17/2023","sheep",NA,"A12Q4BP1S02YWS","A12Q4BP1S02YWS_sheep","sheep",4,175706,1587,33,"chase","dist",0,3,"Ms","dist3"
4,"sheep-and-wolf","10/17/2023","sheep",NA,"A12Q4BP1S02YWS","A12Q4BP1S02YWS_sheep","sheep",5,183912,2351,5,"chase","sheep",1,3,"Hit","sheep"
4,"sheep-and-wolf","10/17/2023","sheep",NA,"A12Q4BP1S02YWS","A12Q4BP1S02YWS_sheep","sheep",6,192185,2082,39,"chase","dist",0,5,"Ms","dist4"
4,"sheep-and-wolf","10/17/2023","sheep",NA,"A12Q4BP1S02YWS","A12Q4BP1S02YWS_sheep","sheep",7,203029,3476,36,"mirror","dist",0,4,"CR","dist6"
4,"sheep-and-wolf","10/17/2023","sheep",NA,"A12Q4BP1S02YWS","A12Q4BP1S02YWS_sheep","sheep",8,210241,1542,245,"mirror","dist",0,5,"CR","dist6"
4,"sheep-and-wolf","10/17/2023","sheep",NA,"A12Q4BP1S02YWS","A12Q4BP1S02YWS_sheep","sheep",9,218226,2601,51,"mirror","dist",0,3,"CR","dist3"
4,"sheep-and-wolf","10/17/2023","sheep",NA,"A12Q4BP1S02YWS","A12Q4BP1S02YWS_sheep","sheep",10,225241,1438,260,"chase","wolf",0,4,"Ms","wolf"
4,"sheep-and-wolf","10/17/2023","sheep",NA,"A12Q4BP1S02YWS","A12Q4BP1S02YWS_sheep","sheep",11,232346,1633,230,"mirror","dist",0,4,"CR","dist3"
4,"sheep-and-wolf","10/17/2023","sheep",NA,"A12Q4BP1S02YWS","A12Q4BP1S02YWS_sheep","sheep",12,239110,1541,58,"chase","dist",0,4,"Ms","dist4"
4,"sheep-and-wolf","10/17/2023","sheep",NA,"A12Q4BP1S02YWS","A12Q4BP1S02YWS_sheep","sheep",13,257738,1761,203,"mirror","dist",0,4,"CR","dist1"
4,"sheep-and-wolf","10/17/2023","sheep",NA,"A12Q4BP1S02YWS","A12Q4BP1S02YWS_sheep","sheep",14,265115,1734,64,"chase","wolf",0,4,"Ms","wolf"
4,"sheep-and-wolf","10/17/2023","sheep",NA,"A12Q4BP1S02YWS","A12Q4BP1S02YWS_sheep","sheep",15,271956,1031,261,"mirror","dist",0,1,"CR","dist4"
4,"sheep-and-wolf","10/17/2023","sheep",NA,"A12Q4BP1S02YWS","A12Q4BP1S02YWS_sheep","sheep",16,278896,1305,74,"chase","wolf",0,2,"Ms","wolf"
4,"sheep-and-wolf","10/17/2023","sheep",NA,"A12Q4BP1S02YWS","A12Q4BP1S02YWS_sheep","sheep",17,287453,1662,239,"mirror","dist",0,3,"CR","dist5"
4,"sheep-and-wolf","10/17/2023","sheep",NA,"A12Q4BP1S02YWS","A12Q4BP1S02YWS_sheep","sheep",18,294656,1462,25,"mirror","dist",0,3,"CR","dist6"
4,"sheep-and-wolf","10/17/2023","sheep",NA,"A12Q4BP1S02YWS","A12Q4BP1S02YWS_sheep","sheep",19,305179,4803,2,"chase","dist",0,2,"Ms","dist1"
4,"sheep-and-wolf","10/17/2023","sheep",NA,"A12Q4BP1S02YWS","A12Q4BP1S02YWS_sheep","sheep",20,313159,2408,195,"mirror","dist",0,3,"CR","dist3"
4,"sheep-and-wolf","10/17/2023","sheep",NA,"A12Q4BP1S02YWS","A12Q4BP1S02YWS_sheep","sheep",21,321089,1298,20,"chase","dist",0,4,"Ms","dist6"
4,"sheep-and-wolf","10/17/2023","sheep",NA,"A12Q4BP1S02YWS","A12Q4BP1S02YWS_sheep","sheep",22,328822,2406,249,"mirror","wolf",0,3,"CR","wolf"
4,"sheep-and-wolf","10/17/2023","sheep",NA,"A12Q4BP1S02YWS","A12Q4BP1S02YWS_sheep","sheep",23,336516,2284,248,"chase","dist",0,3,"Ms","dist4"
4,"sheep-and-wolf","10/17/2023","sheep",NA,"A12Q4BP1S02YWS","A12Q4BP1S02YWS_sheep","sheep",24,344546,2839,16,"chase","dist",0,3,"Ms","dist3"
4,"sheep-and-wolf","10/17/2023","sheep",NA,"A12Q4BP1S02YWS","A12Q4BP1S02YWS_sheep","sheep",25,351408,1563,9,"mirror","dist",0,3,"CR","dist5"
4,"sheep-and-wolf","10/17/2023","sheep",NA,"A12Q4BP1S02YWS","A12Q4BP1S02YWS_sheep","sheep",26,358351,1558,207,"mirror","dist",0,3,"CR","dist1"
4,"sheep-and-wolf","10/17/2023","sheep",NA,"A12Q4BP1S02YWS","A12Q4BP1S02YWS_sheep","sheep",27,367178,3439,253,"mirror","dist",0,5,"CR","dist6"
4,"sheep-and-wolf","10/17/2023","sheep",NA,"A12Q4BP1S02YWS","A12Q4BP1S02YWS_sheep","sheep",28,373888,1464,57,"chase","dist",0,5,"Ms","dist3"
4,"sheep-and-wolf","10/17/2023","sheep",NA,"A12Q4BP1S02YWS","A12Q4BP1S02YWS_sheep","sheep",29,380874,1362,146,"mirror","dist",0,5,"CR","dist6"
4,"sheep-and-wolf","10/17/2023","sheep",NA,"A12Q4BP1S02YWS","A12Q4BP1S02YWS_sheep","sheep",30,387253,1317,262,"chase","dist",0,3,"Ms","dist1"
4,"sheep-and-wolf","10/17/2023","sheep",NA,"A12Q4BP1S02YWS","A12Q4BP1S02YWS_sheep","sheep",31,393793,1381,65,"chase","dist",0,3,"Ms","dist1"
4,"sheep-and-wolf","10/17/2023","sheep",NA,"A12Q4BP1S02YWS","A12Q4BP1S02YWS_sheep","sheep",32,400631,1446,259,"chase","dist",0,3,"Ms","dist2"
4,"sheep-and-wolf","10/17/2023","sheep",NA,"A12Q4BP1S02YWS","A12Q4BP1S02YWS_sheep","sheep",33,407618,1496,109,"mirror","dist",0,3,"CR","dist2"
4,"sheep-and-wolf","10/17/2023","sheep",NA,"A12Q4BP1S02YWS","A12Q4BP1S02YWS_sheep","sheep",34,414548,1569,11,"mirror","dist",0,2,"CR","dist2"
4,"sheep-and-wolf","10/17/2023","sheep",NA,"A12Q4BP1S02YWS","A12Q4BP1S02YWS_sheep","sheep",35,421479,1445,31,"mirror","dist",0,4,"CR","dist5"
4,"sheep-and-wolf","10/17/2023","sheep",NA,"A12Q4BP1S02YWS","A12Q4BP1S02YWS_sheep","sheep",36,428594,1628,234,"chase","dist",0,4,"Ms","dist1"
4,"sheep-and-wolf","10/17/2023","sheep",NA,"A12Q4BP1S02YWS","A12Q4BP1S02YWS_sheep","sheep",37,435511,1854,114,"mirror","dist",0,5,"CR","dist5"
4,"sheep-and-wolf","10/17/2023","sheep",NA,"A12Q4BP1S02YWS","A12Q4BP1S02YWS_sheep","sheep",38,449672,8706,265,"mirror","wolf",0,5,"CR","wolf"
4,"sheep-and-wolf","10/17/2023","sheep",NA,"A12Q4BP1S02YWS","A12Q4BP1S02YWS_sheep","sheep",39,456942,1701,56,"mirror","dist",0,3,"CR","dist6"
4,"sheep-and-wolf","10/17/2023","sheep",NA,"A12Q4BP1S02YWS","A12Q4BP1S02YWS_sheep","sheep",40,465957,2249,91,"mirror","dist",0,2,"CR","dist2"
4,"sheep-and-wolf","10/17/2023","sheep",NA,"A12Q4BP1S02YWS","A12Q4BP1S02YWS_sheep","sheep",41,473802,2243,237,"mirror","dist",0,2,"CR","dist1"
4,"sheep-and-wolf","10/17/2023","sheep",NA,"A12Q4BP1S02YWS","A12Q4BP1S02YWS_sheep","sheep",42,482367,2748,268,"mirror","sheep",1,3,"FA","sheep"
4,"sheep-and-wolf","10/17/2023","sheep",NA,"A12Q4BP1S02YWS","A12Q4BP1S02YWS_sheep","sheep",43,489594,1859,214,"chase","sheep",1,3,"Hit","sheep"
4,"sheep-and-wolf","10/17/2023","sheep",NA,"A12Q4BP1S02YWS","A12Q4BP1S02YWS_sheep","sheep",44,497575,2383,199,"mirror","dist",0,4,"CR","dist2"
4,"sheep-and-wolf","10/17/2023","sheep",NA,"A12Q4BP1S02YWS","A12Q4BP1S02YWS_sheep","sheep",45,505208,1664,37,"mirror","dist",0,4,"CR","dist2"
4,"sheep-and-wolf","10/17/2023","sheep",NA,"A12Q4BP1S02YWS","A12Q4BP1S02YWS_sheep","sheep",46,512895,2000,211,"mirror","dist",0,4,"CR","dist5"
4,"sheep-and-wolf","10/17/2023","sheep",NA,"A12Q4BP1S02YWS","A12Q4BP1S02YWS_sheep","sheep",47,520725,2487,197,"chase","dist",0,5,"Ms","dist6"
4,"sheep-and-wolf","10/17/2023","sheep",NA,"A12Q4BP1S02YWS","A12Q4BP1S02YWS_sheep","sheep",48,527554,1646,194,"chase","dist",0,2,"Ms","dist2"
4,"sheep-and-wolf","10/17/2023","sheep",NA,"A12Q4BP1S02YWS","A12Q4BP1S02YWS_sheep","sheep",49,534513,1386,175,"chase","dist",0,3,"Ms","dist4"
4,"sheep-and-wolf","10/17/2023","sheep",NA,"A12Q4BP1S02YWS","A12Q4BP1S02YWS_sheep","sheep",50,541754,1445,62,"chase","dist",0,3,"Ms","dist3"
4,"sheep-and-wolf","10/17/2023","sheep",NA,"A12Q4BP1S02YWS","A12Q4BP1S02YWS_sheep","sheep",51,548112,1084,90,"chase","sheep",1,3,"Hit","sheep"
4,"sheep-and-wolf","10/17/2023","sheep",NA,"A12Q4BP1S02YWS","A12Q4BP1S02YWS_sheep","sheep",52,554675,1230,45,"mirror","sheep",1,3,"FA","sheep"
4,"sheep-and-wolf","10/17/2023","sheep",NA,"A12Q4BP1S02YWS","A12Q4BP1S02YWS_sheep","sheep",53,561454,1418,76,"chase","dist",0,4,"Ms","dist3"
4,"sheep-and-wolf","10/17/2023","sheep",NA,"A12Q4BP1S02YWS","A12Q4BP1S02YWS_sheep","sheep",54,568097,1248,79,"mirror","dist",0,4,"CR","dist4"
4,"sheep-and-wolf","10/17/2023","sheep",NA,"A12Q4BP1S02YWS","A12Q4BP1S02YWS_sheep","sheep",55,575298,1645,205,"mirror","dist",0,1,"CR","dist4"
4,"sheep-and-wolf","10/17/2023","sheep",NA,"A12Q4BP1S02YWS","A12Q4BP1S02YWS_sheep","sheep",56,582171,1722,246,"chase","dist",0,1,"Ms","dist2"
4,"sheep-and-wolf","10/17/2023","sheep",NA,"A12Q4BP1S02YWS","A12Q4BP1S02YWS_sheep","sheep",57,589587,1160,82,"chase","sheep",1,5,"Hit","sheep"
4,"sheep-and-wolf","10/17/2023","sheep",NA,"A12Q4BP1S02YWS","A12Q4BP1S02YWS_sheep","sheep",58,605792,10941,156,"chase","sheep",1,3,"Hit","sheep"
4,"sheep-and-wolf","10/17/2023","sheep",NA,"A12Q4BP1S02YWS","A12Q4BP1S02YWS_sheep","sheep",59,618557,1289,241,"chase","dist",0,3,"Ms","dist2"
4,"sheep-and-wolf","10/17/2023","sheep",NA,"A12Q4BP1S02YWS","A12Q4BP1S02YWS_sheep","sheep",60,624911,1208,165,"chase","dist",0,3,"Ms","dist1"
4,"sheep-and-wolf","10/17/2023","sheep",NA,"A12Q4BP1S02YWS","A12Q4BP1S02YWS_sheep","sheep",61,631931,1817,115,"chase","dist",0,3,"Ms","dist4"
4,"sheep-and-wolf","10/17/2023","sheep",NA,"A12Q4BP1S02YWS","A12Q4BP1S02YWS_sheep","sheep",62,639432,1734,14,"chase","dist",0,5,"Ms","dist3"
4,"sheep-and-wolf","10/17/2023","sheep",NA,"A12Q4BP1S02YWS","A12Q4BP1S02YWS_sheep","sheep",63,648090,2345,193,"chase","dist",0,1,"Ms","dist6"
4,"sheep-and-wolf","10/17/2023","sheep",NA,"A12Q4BP1S02YWS","A12Q4BP1S02YWS_sheep","sheep",64,655465,1947,46,"chase","dist",0,4,"Ms","dist5"
4,"sheep-and-wolf","10/17/2023","sheep",NA,"A12Q4BP1S02YWS","A12Q4BP1S02YWS_sheep","sheep",65,662523,1366,269,"mirror","dist",0,5,"CR","dist5"
4,"sheep-and-wolf","10/17/2023","sheep",NA,"A12Q4BP1S02YWS","A12Q4BP1S02YWS_sheep","sheep",66,690660,21644,204,"mirror","dist",0,3,"CR","dist2"
4,"sheep-and-wolf","10/17/2023","sheep",NA,"A12Q4BP1S02YWS","A12Q4BP1S02YWS_sheep","sheep",67,697748,1631,116,"mirror","wolf",0,3,"CR","wolf"
4,"sheep-and-wolf","10/17/2023","sheep",NA,"A12Q4BP1S02YWS","A12Q4BP1S02YWS_sheep","sheep",68,705083,1190,161,"mirror","dist",0,4,"CR","dist1"
4,"sheep-and-wolf","10/17/2023","sheep",NA,"A12Q4BP1S02YWS","A12Q4BP1S02YWS_sheep","sheep",69,711920,1332,145,"mirror","dist",0,4,"CR","dist3"
4,"sheep-and-wolf","10/17/2023","sheep",NA,"A12Q4BP1S02YWS","A12Q4BP1S02YWS_sheep","sheep",70,718533,1133,183,"mirror","dist",0,3,"CR","dist1"
4,"sheep-and-wolf","10/17/2023","wolf",NA,"A12Q4BP1S02YWS","A12Q4BP1S02YWS_wolf","sheep",1,1244527,1236,6,"chase","dist",0,4,"Ms","dist4"
4,"sheep-and-wolf","10/17/2023","wolf",NA,"A12Q4BP1S02YWS","A12Q4BP1S02YWS_wolf","sheep",2,1251277,1282,72,"chase","dist",0,3,"Ms","dist6"
4,"sheep-and-wolf","10/17/2023","wolf",NA,"A12Q4BP1S02YWS","A12Q4BP1S02YWS_wolf","sheep",3,1257915,1205,38,"chase","dist",0,3,"Ms","dist4"
4,"sheep-and-wolf","10/17/2023","wolf",NA,"A12Q4BP1S02YWS","A12Q4BP1S02YWS_wolf","sheep",4,1264323,1119,33,"chase","dist",0,3,"Ms","dist1"
4,"sheep-and-wolf","10/17/2023","wolf",NA,"A12Q4BP1S02YWS","A12Q4BP1S02YWS_wolf","sheep",5,1271106,1404,5,"chase","sheep",0,3,"Ms","sheep"
4,"sheep-and-wolf","10/17/2023","wolf",NA,"A12Q4BP1S02YWS","A12Q4BP1S02YWS_wolf","sheep",6,1278223,1417,39,"chase","dist",0,3,"Ms","dist4"
4,"sheep-and-wolf","10/17/2023","wolf",NA,"A12Q4BP1S02YWS","A12Q4BP1S02YWS_wolf","sheep",7,1287822,3805,36,"mirror","dist",0,3,"CR","dist1"
4,"sheep-and-wolf","10/17/2023","wolf",NA,"A12Q4BP1S02YWS","A12Q4BP1S02YWS_wolf","sheep",8,1296005,2038,245,"mirror","dist",0,5,"CR","dist3"
4,"sheep-and-wolf","10/17/2023","wolf",NA,"A12Q4BP1S02YWS","A12Q4BP1S02YWS_wolf","sheep",9,1302874,1354,51,"mirror","dist",0,5,"CR","dist6"
4,"sheep-and-wolf","10/17/2023","wolf",NA,"A12Q4BP1S02YWS","A12Q4BP1S02YWS_wolf","sheep",10,1310093,1438,260,"chase","wolf",1,2,"Hit","wolf"
4,"sheep-and-wolf","10/17/2023","wolf",NA,"A12Q4BP1S02YWS","A12Q4BP1S02YWS_wolf","sheep",11,1316767,1293,230,"mirror","dist",0,1,"CR","dist5"
4,"sheep-and-wolf","10/17/2023","wolf",NA,"A12Q4BP1S02YWS","A12Q4BP1S02YWS_wolf","sheep",12,1323779,1430,58,"chase","dist",0,1,"Ms","dist4"
4,"sheep-and-wolf","10/17/2023","wolf",NA,"A12Q4BP1S02YWS","A12Q4BP1S02YWS_wolf","sheep",13,1330886,1859,203,"mirror","dist",0,3,"CR","dist1"
4,"sheep-and-wolf","10/17/2023","wolf",NA,"A12Q4BP1S02YWS","A12Q4BP1S02YWS_wolf","sheep",14,1337993,1603,64,"chase","dist",0,3,"Ms","dist1"
4,"sheep-and-wolf","10/17/2023","wolf",NA,"A12Q4BP1S02YWS","A12Q4BP1S02YWS_wolf","sheep",15,1344553,1152,261,"mirror","sheep",0,4,"CR","sheep"
4,"sheep-and-wolf","10/17/2023","wolf",NA,"A12Q4BP1S02YWS","A12Q4BP1S02YWS_wolf","sheep",16,1351363,953,74,"chase","wolf",1,4,"Hit","wolf"
4,"sheep-and-wolf","10/17/2023","wolf",NA,"A12Q4BP1S02YWS","A12Q4BP1S02YWS_wolf","sheep",17,1360606,3935,239,"mirror","dist",0,5,"CR","dist4"
4,"sheep-and-wolf","10/17/2023","wolf",NA,"A12Q4BP1S02YWS","A12Q4BP1S02YWS_wolf","sheep",18,1368090,1511,25,"mirror","sheep",0,5,"CR","sheep"
4,"sheep-and-wolf","10/17/2023","wolf",NA,"A12Q4BP1S02YWS","A12Q4BP1S02YWS_wolf","sheep",19,1376713,2485,2,"chase","dist",0,3,"Ms","dist5"
4,"sheep-and-wolf","10/17/2023","wolf",NA,"A12Q4BP1S02YWS","A12Q4BP1S02YWS_wolf","sheep",20,1383733,1407,195,"mirror","dist",0,4,"CR","dist3"
4,"sheep-and-wolf","10/17/2023","wolf",NA,"A12Q4BP1S02YWS","A12Q4BP1S02YWS_wolf","sheep",21,1392155,2665,20,"chase","dist",0,4,"Ms","dist6"
4,"sheep-and-wolf","10/17/2023","wolf",NA,"A12Q4BP1S02YWS","A12Q4BP1S02YWS_wolf","sheep",22,1398876,1257,249,"mirror","dist",0,4,"CR","dist5"
4,"sheep-and-wolf","10/17/2023","wolf",NA,"A12Q4BP1S02YWS","A12Q4BP1S02YWS_wolf","sheep",23,1405543,1351,248,"chase","dist",0,4,"Ms","dist4"
4,"sheep-and-wolf","10/17/2023","wolf",NA,"A12Q4BP1S02YWS","A12Q4BP1S02YWS_wolf","sheep",24,1412637,1205,16,"chase","dist",0,2,"Ms","dist2"
4,"sheep-and-wolf","10/17/2023","wolf",NA,"A12Q4BP1S02YWS","A12Q4BP1S02YWS_wolf","sheep",25,1419564,1179,9,"mirror","dist",0,3,"CR","dist5"
4,"sheep-and-wolf","10/17/2023","wolf",NA,"A12Q4BP1S02YWS","A12Q4BP1S02YWS_wolf","sheep",26,1426826,1811,207,"mirror","sheep",0,2,"CR","sheep"
4,"sheep-and-wolf","10/17/2023","wolf",NA,"A12Q4BP1S02YWS","A12Q4BP1S02YWS_wolf","sheep",27,1439808,1934,253,"mirror","dist",0,2,"CR","dist5"
4,"sheep-and-wolf","10/17/2023","wolf",NA,"A12Q4BP1S02YWS","A12Q4BP1S02YWS_wolf","sheep",28,1448686,2220,57,"chase","sheep",0,3,"Ms","sheep"
4,"sheep-and-wolf","10/17/2023","wolf",NA,"A12Q4BP1S02YWS","A12Q4BP1S02YWS_wolf","sheep",29,1455581,1411,146,"mirror","dist",0,5,"CR","dist4"
4,"sheep-and-wolf","10/17/2023","wolf",NA,"A12Q4BP1S02YWS","A12Q4BP1S02YWS_wolf","sheep",30,1467104,3464,262,"chase","sheep",0,5,"Ms","sheep"
4,"sheep-and-wolf","10/17/2023","wolf",NA,"A12Q4BP1S02YWS","A12Q4BP1S02YWS_wolf","sheep",31,1474370,1416,65,"chase","wolf",1,3,"Hit","wolf"
4,"sheep-and-wolf","10/17/2023","wolf",NA,"A12Q4BP1S02YWS","A12Q4BP1S02YWS_wolf","sheep",32,1484361,2711,259,"chase","wolf",1,5,"Hit","wolf"
4,"sheep-and-wolf","10/17/2023","wolf",NA,"A12Q4BP1S02YWS","A12Q4BP1S02YWS_wolf","sheep",33,1491511,1679,109,"mirror","dist",0,5,"CR","dist6"
4,"sheep-and-wolf","10/17/2023","wolf",NA,"A12Q4BP1S02YWS","A12Q4BP1S02YWS_wolf","sheep",34,1498664,1304,11,"mirror","dist",0,5,"CR","dist2"
4,"sheep-and-wolf","10/17/2023","wolf",NA,"A12Q4BP1S02YWS","A12Q4BP1S02YWS_wolf","sheep",35,1505608,1447,31,"mirror","dist",0,5,"CR","dist5"
4,"sheep-and-wolf","10/17/2023","wolf",NA,"A12Q4BP1S02YWS","A12Q4BP1S02YWS_wolf","sheep",36,1512464,1541,234,"chase","wolf",1,3,"Hit","wolf"
4,"sheep-and-wolf","10/17/2023","wolf",NA,"A12Q4BP1S02YWS","A12Q4BP1S02YWS_wolf","sheep",37,1519594,1644,114,"mirror","dist",0,5,"CR","dist5"
4,"sheep-and-wolf","10/17/2023","wolf",NA,"A12Q4BP1S02YWS","A12Q4BP1S02YWS_wolf","sheep",38,1526844,1705,265,"mirror","wolf",1,3,"FA","wolf"
4,"sheep-and-wolf","10/17/2023","wolf",NA,"A12Q4BP1S02YWS","A12Q4BP1S02YWS_wolf","sheep",39,1534108,1980,56,"mirror","dist",0,5,"CR","dist6"
4,"sheep-and-wolf","10/17/2023","wolf",NA,"A12Q4BP1S02YWS","A12Q4BP1S02YWS_wolf","sheep",40,1541841,1938,91,"mirror","dist",0,5,"CR","dist2"
4,"sheep-and-wolf","10/17/2023","wolf",NA,"A12Q4BP1S02YWS","A12Q4BP1S02YWS_wolf","sheep",41,1548926,1740,237,"mirror","dist",0,2,"CR","dist5"
4,"sheep-and-wolf","10/17/2023","wolf",NA,"A12Q4BP1S02YWS","A12Q4BP1S02YWS_wolf","sheep",42,1556178,1722,268,"mirror","sheep",0,3,"CR","sheep"
4,"sheep-and-wolf","10/17/2023","wolf",NA,"A12Q4BP1S02YWS","A12Q4BP1S02YWS_wolf","sheep",43,1564710,1743,214,"chase","dist",0,3,"Ms","dist6"
4,"sheep-and-wolf","10/17/2023","wolf",NA,"A12Q4BP1S02YWS","A12Q4BP1S02YWS_wolf","sheep",44,1573133,1737,199,"mirror","dist",0,3,"CR","dist6"
4,"sheep-and-wolf","10/17/2023","wolf",NA,"A12Q4BP1S02YWS","A12Q4BP1S02YWS_wolf","sheep",45,1582796,4271,37,"mirror","wolf",1,3,"FA","wolf"
4,"sheep-and-wolf","10/17/2023","wolf",NA,"A12Q4BP1S02YWS","A12Q4BP1S02YWS_wolf","sheep",46,1591518,2153,211,"mirror","dist",0,2,"CR","dist6"
4,"sheep-and-wolf","10/17/2023","wolf",NA,"A12Q4BP1S02YWS","A12Q4BP1S02YWS_wolf","sheep",47,1601498,3938,197,"chase","dist",0,3,"Ms","dist3"
4,"sheep-and-wolf","10/17/2023","wolf",NA,"A12Q4BP1S02YWS","A12Q4BP1S02YWS_wolf","sheep",48,1619996,12986,194,"chase","sheep",0,5,"Ms","sheep"
4,"sheep-and-wolf","10/17/2023","wolf",NA,"A12Q4BP1S02YWS","A12Q4BP1S02YWS_wolf","sheep",49,1631727,5966,175,"chase","wolf",1,3,"Hit","wolf"
4,"sheep-and-wolf","10/17/2023","wolf",NA,"A12Q4BP1S02YWS","A12Q4BP1S02YWS_wolf","sheep",50,1645850,6605,62,"chase","dist",0,4,"Ms","dist5"
4,"sheep-and-wolf","10/17/2023","wolf",NA,"A12Q4BP1S02YWS","A12Q4BP1S02YWS_wolf","sheep",51,1652777,1260,90,"chase","sheep",0,4,"Ms","sheep"
4,"sheep-and-wolf","10/17/2023","wolf",NA,"A12Q4BP1S02YWS","A12Q4BP1S02YWS_wolf","sheep",52,1701127,42318,45,"mirror","sheep",0,3,"CR","sheep"
4,"sheep-and-wolf","10/17/2023","wolf",NA,"A12Q4BP1S02YWS","A12Q4BP1S02YWS_wolf","sheep",53,1708396,1440,76,"chase","wolf",1,4,"Hit","wolf"
4,"sheep-and-wolf","10/17/2023","wolf",NA,"A12Q4BP1S02YWS","A12Q4BP1S02YWS_wolf","sheep",54,1715406,1378,79,"mirror","dist",0,4,"CR","dist4"
4,"sheep-and-wolf","10/17/2023","wolf",NA,"A12Q4BP1S02YWS","A12Q4BP1S02YWS_wolf","sheep",55,1722386,1241,205,"mirror","dist",0,4,"CR","dist2"
4,"sheep-and-wolf","10/17/2023","wolf",NA,"A12Q4BP1S02YWS","A12Q4BP1S02YWS_wolf","sheep",56,1728974,1234,246,"chase","dist",0,4,"Ms","dist3"
4,"sheep-and-wolf","10/17/2023","wolf",NA,"A12Q4BP1S02YWS","A12Q4BP1S02YWS_wolf","sheep",57,1735917,1285,82,"chase","dist",0,4,"Ms","dist6"
4,"sheep-and-wolf","10/17/2023","wolf",NA,"A12Q4BP1S02YWS","A12Q4BP1S02YWS_wolf","sheep",58,1746024,1552,156,"chase","dist",0,1,"Ms","dist3"
4,"sheep-and-wolf","10/17/2023","wolf",NA,"A12Q4BP1S02YWS","A12Q4BP1S02YWS_wolf","sheep",59,1752990,1224,241,"chase","wolf",1,2,"Hit","wolf"
4,"sheep-and-wolf","10/17/2023","wolf",NA,"A12Q4BP1S02YWS","A12Q4BP1S02YWS_wolf","sheep",60,1759810,1378,165,"chase","dist",0,3,"Ms","dist5"
4,"sheep-and-wolf","10/17/2023","wolf",NA,"A12Q4BP1S02YWS","A12Q4BP1S02YWS_wolf","sheep",61,1766888,1375,115,"chase","dist",0,1,"Ms","dist4"
4,"sheep-and-wolf","10/17/2023","wolf",NA,"A12Q4BP1S02YWS","A12Q4BP1S02YWS_wolf","sheep",62,1775301,1463,14,"chase","dist",0,2,"Ms","dist3"
4,"sheep-and-wolf","10/17/2023","wolf",NA,"A12Q4BP1S02YWS","A12Q4BP1S02YWS_wolf","sheep",63,1782192,1306,193,"chase","dist",0,2,"Ms","dist6"
4,"sheep-and-wolf","10/17/2023","wolf",NA,"A12Q4BP1S02YWS","A12Q4BP1S02YWS_wolf","sheep",64,1788801,1201,46,"chase","wolf",1,2,"Hit","wolf"
4,"sheep-and-wolf","10/17/2023","wolf",NA,"A12Q4BP1S02YWS","A12Q4BP1S02YWS_wolf","sheep",65,1796467,1414,269,"mirror","dist",0,1,"CR","dist5"
4,"sheep-and-wolf","10/17/2023","wolf",NA,"A12Q4BP1S02YWS","A12Q4BP1S02YWS_wolf","sheep",66,1803821,1913,204,"mirror","dist",0,5,"CR","dist5"
4,"sheep-and-wolf","10/17/2023","wolf",NA,"A12Q4BP1S02YWS","A12Q4BP1S02YWS_wolf","sheep",67,1810874,1302,116,"mirror","dist",0,5,"CR","dist4"
4,"sheep-and-wolf","10/17/2023","wolf",NA,"A12Q4BP1S02YWS","A12Q4BP1S02YWS_wolf","sheep",68,1817513,1365,161,"mirror","dist",0,5,"CR","dist1"
4,"sheep-and-wolf","10/17/2023","wolf",NA,"A12Q4BP1S02YWS","A12Q4BP1S02YWS_wolf","sheep",69,1824158,1469,145,"mirror","dist",0,5,"CR","dist3"
4,"sheep-and-wolf","10/17/2023","wolf",NA,"A12Q4BP1S02YWS","A12Q4BP1S02YWS_wolf","sheep",70,1830499,1049,183,"mirror","dist",0,5,"CR","dist5"
4,"sheep-and-wolf","10/17/2023","wolf",NA,"A13WTEQ06V3B6D","A13WTEQ06V3B6D_wolf","wolf",1,84364,2100,280,"chase","dist",0,2,"Ms","dist3"
4,"sheep-and-wolf","10/17/2023","wolf",NA,"A13WTEQ06V3B6D","A13WTEQ06V3B6D_wolf","wolf",2,94505,4386.80000019073,250,"chase","wolf",1,5,"Hit","wolf"
4,"sheep-and-wolf","10/17/2023","wolf",NA,"A13WTEQ06V3B6D","A13WTEQ06V3B6D_wolf","wolf",3,101019,1275,238,"mirror","dist",0,1,"CR","dist1"
4,"sheep-and-wolf","10/17/2023","wolf",NA,"A13WTEQ06V3B6D","A13WTEQ06V3B6D_wolf","wolf",4,108520,1405.59999990463,257,"chase","wolf",1,1,"Hit","wolf"
4,"sheep-and-wolf","10/17/2023","wolf",NA,"A13WTEQ06V3B6D","A13WTEQ06V3B6D_wolf","wolf",5,115609,1549.30000019073,252,"mirror","dist",0,1,"CR","dist5"
4,"sheep-and-wolf","10/17/2023","wolf",NA,"A13WTEQ06V3B6D","A13WTEQ06V3B6D_wolf","wolf",6,122143,850.600000143051,244,"chase","wolf",1,5,"Hit","wolf"
4,"sheep-and-wolf","10/17/2023","wolf",NA,"A13WTEQ06V3B6D","A13WTEQ06V3B6D_wolf","wolf",7,129668,1783.40000009537,268,"chase","wolf",1,1,"Hit","wolf"
4,"sheep-and-wolf","10/17/2023","wolf",NA,"A13WTEQ06V3B6D","A13WTEQ06V3B6D_wolf","wolf",8,137298,1738.69999980927,274,"chase","wolf",1,5,"Hit","wolf"
4,"sheep-and-wolf","10/17/2023","wolf",NA,"A13WTEQ06V3B6D","A13WTEQ06V3B6D_wolf","wolf",9,155787,12543.1000001431,236,"chase","wolf",1,4,"Hit","wolf"
4,"sheep-and-wolf","10/17/2023","wolf",NA,"A13WTEQ06V3B6D","A13WTEQ06V3B6D_wolf","wolf",10,162363,1226.60000014305,200,"mirror","dist",0,1,"CR","dist2"
4,"sheep-and-wolf","10/17/2023","wolf",NA,"A13WTEQ06V3B6D","A13WTEQ06V3B6D_wolf","wolf",11,168480,822.600000143051,212,"chase","wolf",1,4,"Hit","wolf"
4,"sheep-and-wolf","10/17/2023","wolf",NA,"A13WTEQ06V3B6D","A13WTEQ06V3B6D_wolf","wolf",12,175930,1572.30000019073,239,"mirror","dist",0,1,"CR","dist4"
4,"sheep-and-wolf","10/17/2023","wolf",NA,"A13WTEQ06V3B6D","A13WTEQ06V3B6D_wolf","wolf",13,182699,1446.70000004768,154,"mirror","dist",0,1,"CR","dist5"
4,"sheep-and-wolf","10/17/2023","wolf",NA,"A13WTEQ06V3B6D","A13WTEQ06V3B6D_wolf","wolf",14,189772,985.700000047684,211,"mirror","dist",0,5,"CR","dist6"
4,"sheep-and-wolf","10/17/2023","wolf",NA,"A13WTEQ06V3B6D","A13WTEQ06V3B6D_wolf","wolf",15,196953,1298.90000009537,245,"chase","wolf",1,2,"Hit","wolf"
4,"sheep-and-wolf","10/17/2023","wolf",NA,"A13WTEQ06V3B6D","A13WTEQ06V3B6D_wolf","wolf",16,204293,1430.40000009537,220,"chase","wolf",1,2,"Hit","wolf"
4,"sheep-and-wolf","10/17/2023","wolf",NA,"A13WTEQ06V3B6D","A13WTEQ06V3B6D_wolf","wolf",17,210593,681,32,"chase","wolf",1,4,"Hit","wolf"
4,"sheep-and-wolf","10/17/2023","wolf",NA,"A13WTEQ06V3B6D","A13WTEQ06V3B6D_wolf","wolf",18,225695,9372.10000014305,21,"chase","wolf",1,5,"Hit","wolf"
4,"sheep-and-wolf","10/17/2023","wolf",NA,"A13WTEQ06V3B6D","A13WTEQ06V3B6D_wolf","wolf",19,232318,915.900000095367,196,"mirror","dist",0,1,"CR","dist6"
4,"sheep-and-wolf","10/17/2023","wolf",NA,"A13WTEQ06V3B6D","A13WTEQ06V3B6D_wolf","wolf",20,239387,1435.40000009537,261,"chase","wolf",1,3,"Hit","wolf"
4,"sheep-and-wolf","10/17/2023","wolf",NA,"A13WTEQ06V3B6D","A13WTEQ06V3B6D_wolf","wolf",21,246119,1125.20000004768,293,"chase","wolf",1,5,"Hit","wolf"
4,"sheep-and-wolf","10/17/2023","wolf",NA,"A13WTEQ06V3B6D","A13WTEQ06V3B6D_wolf","wolf",22,253200,1722.5,41,"chase","sheep",0,1,"Ms","sheep"
4,"sheep-and-wolf","10/17/2023","wolf",NA,"A13WTEQ06V3B6D","A13WTEQ06V3B6D_wolf","wolf",23,260298,1476,23,"chase","wolf",1,5,"Hit","wolf"
4,"sheep-and-wolf","10/17/2023","wolf",NA,"A13WTEQ06V3B6D","A13WTEQ06V3B6D_wolf","wolf",24,272469,6796,72,"chase","wolf",1,1,"Hit","wolf"
4,"sheep-and-wolf","10/17/2023","wolf",NA,"A13WTEQ06V3B6D","A13WTEQ06V3B6D_wolf","wolf",25,279450,1237.20000004768,5,"chase","dist",0,4,"Ms","dist3"
4,"sheep-and-wolf","10/17/2023","wolf",NA,"A13WTEQ06V3B6D","A13WTEQ06V3B6D_wolf","wolf",26,286792,1514.09999990463,267,"chase","wolf",1,5,"Hit","wolf"
4,"sheep-and-wolf","10/17/2023","wolf",NA,"A13WTEQ06V3B6D","A13WTEQ06V3B6D_wolf","wolf",27,293493,1045.79999995232,37,"chase","wolf",1,5,"Hit","wolf"
4,"sheep-and-wolf","10/17/2023","wolf",NA,"A13WTEQ06V3B6D","A13WTEQ06V3B6D_wolf","wolf",28,301110,2012.39999985695,243,"chase","sheep",0,1,"Ms","sheep"
4,"sheep-and-wolf","10/17/2023","wolf",NA,"A13WTEQ06V3B6D","A13WTEQ06V3B6D_wolf","wolf",29,338695,32155.2999999523,179,"chase","dist",0,3,"Ms","dist5"
4,"sheep-and-wolf","10/17/2023","wolf",NA,"A13WTEQ06V3B6D","A13WTEQ06V3B6D_wolf","wolf",30,345281,898.600000143051,62,"chase","wolf",1,4,"Hit","wolf"
4,"sheep-and-wolf","10/17/2023","wolf",NA,"A13WTEQ06V3B6D","A13WTEQ06V3B6D_wolf","wolf",31,352036,1185.90000009537,289,"chase","wolf",1,1,"Hit","wolf"
4,"sheep-and-wolf","10/17/2023","wolf",NA,"A13WTEQ06V3B6D","A13WTEQ06V3B6D_wolf","wolf",32,358629,851.900000095367,263,"chase","wolf",1,5,"Hit","wolf"
4,"sheep-and-wolf","10/17/2023","wolf",NA,"A13WTEQ06V3B6D","A13WTEQ06V3B6D_wolf","wolf",33,365555,1222.60000014305,292,"chase","wolf",1,5,"Hit","wolf"
4,"sheep-and-wolf","10/17/2023","wolf",NA,"A13WTEQ06V3B6D","A13WTEQ06V3B6D_wolf","wolf",34,372242,1251.20000004768,194,"mirror","dist",0,2,"CR","dist1"
4,"sheep-and-wolf","10/17/2023","wolf",NA,"A13WTEQ06V3B6D","A13WTEQ06V3B6D_wolf","wolf",35,381590,4184.20000004768,22,"mirror","dist",0,1,"CR","dist6"
4,"sheep-and-wolf","10/17/2023","wolf",NA,"A13WTEQ06V3B6D","A13WTEQ06V3B6D_wolf","wolf",36,388299,989.5,197,"mirror","dist",0,4,"CR","dist2"
4,"sheep-and-wolf","10/17/2023","wolf",NA,"A13WTEQ06V3B6D","A13WTEQ06V3B6D_wolf","wolf",37,395167,1200.29999995232,51,"mirror","wolf",1,2,"FA","wolf"
4,"sheep-and-wolf","10/17/2023","wolf",NA,"A13WTEQ06V3B6D","A13WTEQ06V3B6D_wolf","wolf",38,402854,2341.40000009537,111,"mirror","dist",0,1,"CR","dist3"
4,"sheep-and-wolf","10/17/2023","wolf",NA,"A13WTEQ06V3B6D","A13WTEQ06V3B6D_wolf","wolf",39,410406,1915.60000014305,144,"mirror","dist",0,1,"CR","dist5"
4,"sheep-and-wolf","10/17/2023","wolf",NA,"A13WTEQ06V3B6D","A13WTEQ06V3B6D_wolf","wolf",40,417559,1520.40000009537,195,"mirror","dist",0,1,"CR","dist3"
4,"sheep-and-wolf","10/17/2023","wolf",NA,"A13WTEQ06V3B6D","A13WTEQ06V3B6D_wolf","wolf",41,424414,1234.5,275,"mirror","dist",0,2,"CR","dist2"
4,"sheep-and-wolf","10/17/2023","wolf",NA,"A13WTEQ06V3B6D","A13WTEQ06V3B6D_wolf","wolf",42,438618,8770.60000014305,187,"chase","dist",0,2,"Ms","dist5"
4,"sheep-and-wolf","10/17/2023","wolf",NA,"A13WTEQ06V3B6D","A13WTEQ06V3B6D_wolf","wolf",43,445621,1344.89999985695,174,"mirror","dist",0,1,"CR","dist5"
4,"sheep-and-wolf","10/17/2023","wolf",NA,"A13WTEQ06V3B6D","A13WTEQ06V3B6D_wolf","wolf",44,452153,869.700000047684,71,"chase","wolf",1,5,"Hit","wolf"
4,"sheep-and-wolf","10/17/2023","wolf",NA,"A13WTEQ06V3B6D","A13WTEQ06V3B6D_wolf","wolf",45,458923,1486.10000014305,228,"mirror","dist",0,1,"CR","dist2"
4,"sheep-and-wolf","10/17/2023","wolf",NA,"A13WTEQ06V3B6D","A13WTEQ06V3B6D_wolf","wolf",46,465791,1430.09999990463,163,"mirror","dist",0,1,"CR","dist1"
4,"sheep-and-wolf","10/17/2023","wolf",NA,"A13WTEQ06V3B6D","A13WTEQ06V3B6D_wolf","wolf",47,492994,21422.4000000954,148,"mirror","dist",0,1,"CR","dist3"
4,"sheep-and-wolf","10/17/2023","wolf",NA,"A13WTEQ06V3B6D","A13WTEQ06V3B6D_wolf","wolf",48,500052,1304.5,128,"mirror","sheep",0,1,"CR","sheep"
4,"sheep-and-wolf","10/17/2023","wolf",NA,"A13WTEQ06V3B6D","A13WTEQ06V3B6D_wolf","wolf",49,506667,1300.19999980927,52,"mirror","dist",0,1,"CR","dist6"
4,"sheep-and-wolf","10/17/2023","wolf",NA,"A13WTEQ06V3B6D","A13WTEQ06V3B6D_wolf","wolf",50,513629,1780.70000004768,149,"mirror","dist",0,1,"CR","dist6"
4,"sheep-and-wolf","10/17/2023","wolf",NA,"A13WTEQ06V3B6D","A13WTEQ06V3B6D_wolf","wolf",51,520159,870.100000143051,39,"chase","wolf",1,5,"Hit","wolf"
4,"sheep-and-wolf","10/17/2023","wolf",NA,"A13WTEQ06V3B6D","A13WTEQ06V3B6D_wolf","wolf",52,526588,796.200000047684,54,"mirror","dist",0,2,"CR","dist6"
4,"sheep-and-wolf","10/17/2023","wolf",NA,"A13WTEQ06V3B6D","A13WTEQ06V3B6D_wolf","wolf",53,533751,1841.29999995232,2,"mirror","dist",0,1,"CR","dist4"
4,"sheep-and-wolf","10/17/2023","wolf",NA,"A13WTEQ06V3B6D","A13WTEQ06V3B6D_wolf","wolf",54,540163,922.400000095367,161,"mirror","wolf",1,1,"FA","wolf"
4,"sheep-and-wolf","10/17/2023","wolf",NA,"A13WTEQ06V3B6D","A13WTEQ06V3B6D_wolf","wolf",55,546576,1016.59999990463,155,"chase","wolf",1,2,"Hit","wolf"
4,"sheep-and-wolf","10/17/2023","wolf",NA,"A13WTEQ06V3B6D","A13WTEQ06V3B6D_wolf","wolf",56,553282,1496.10000014305,164,"mirror","dist",0,1,"CR","dist3"
4,"sheep-and-wolf","10/17/2023","wolf",NA,"A13WTEQ06V3B6D","A13WTEQ06V3B6D_wolf","wolf",57,560539,1347.20000004768,227,"chase","wolf",1,5,"Hit","wolf"
4,"sheep-and-wolf","10/17/2023","wolf",NA,"A13WTEQ06V3B6D","A13WTEQ06V3B6D_wolf","wolf",58,567526,992.5,28,"chase","dist",0,1,"Ms","dist2"
4,"sheep-and-wolf","10/17/2023","wolf",NA,"A13WTEQ06V3B6D","A13WTEQ06V3B6D_wolf","wolf",59,575087,2239.79999995232,123,"mirror","dist",0,1,"CR","dist5"
4,"sheep-and-wolf","10/17/2023","wolf",NA,"A13WTEQ06V3B6D","A13WTEQ06V3B6D_wolf","wolf",60,582849,2536.10000014305,276,"mirror","sheep",0,1,"CR","sheep"
4,"sheep-and-wolf","10/17/2023","wolf",NA,"A13WTEQ06V3B6D","A13WTEQ06V3B6D_wolf","wolf",61,589565,947.200000047684,132,"chase","sheep",0,3,"Ms","sheep"
4,"sheep-and-wolf","10/17/2023","wolf",NA,"A13WTEQ06V3B6D","A13WTEQ06V3B6D_wolf","wolf",62,595892,969.399999856949,185,"mirror","dist",0,1,"CR","dist6"
4,"sheep-and-wolf","10/17/2023","wolf",NA,"A13WTEQ06V3B6D","A13WTEQ06V3B6D_wolf","wolf",63,602244,942.299999952316,298,"mirror","dist",0,1,"CR","dist3"
4,"sheep-and-wolf","10/17/2023","wolf",NA,"A13WTEQ06V3B6D","A13WTEQ06V3B6D_wolf","wolf",64,608837,919.099999904633,7,"chase","wolf",1,5,"Hit","wolf"
4,"sheep-and-wolf","10/17/2023","wolf",NA,"A13WTEQ06V3B6D","A13WTEQ06V3B6D_wolf","wolf",65,615666,1161.09999990463,73,"mirror","dist",0,2,"CR","dist4"
4,"sheep-and-wolf","10/17/2023","wolf",NA,"A13WTEQ06V3B6D","A13WTEQ06V3B6D_wolf","wolf",66,622154,1196.29999995232,201,"mirror","dist",0,1,"CR","dist3"
4,"sheep-and-wolf","10/17/2023","wolf",NA,"A13WTEQ06V3B6D","A13WTEQ06V3B6D_wolf","wolf",67,629148,1400.39999985695,231,"mirror","sheep",0,1,"CR","sheep"
4,"sheep-and-wolf","10/17/2023","wolf",NA,"A13WTEQ06V3B6D","A13WTEQ06V3B6D_wolf","wolf",68,635549,855.800000190735,271,"chase","wolf",1,2,"Hit","wolf"
4,"sheep-and-wolf","10/17/2023","wolf",NA,"A13WTEQ06V3B6D","A13WTEQ06V3B6D_wolf","wolf",69,641809,1005.40000009537,135,"mirror","dist",0,1,"CR","dist6"
4,"sheep-and-wolf","10/17/2023","wolf",NA,"A13WTEQ06V3B6D","A13WTEQ06V3B6D_wolf","wolf",70,648539,1416.90000009537,77,"mirror","wolf",1,1,"FA","wolf"
4,"sheep-and-wolf","10/17/2023","sheep",NA,"A13WTEQ06V3B6D","A13WTEQ06V3B6D_sheep","wolf",1,1194548,841.599999904633,280,"chase","sheep",1,5,"Hit","sheep"
4,"sheep-and-wolf","10/17/2023","sheep",NA,"A13WTEQ06V3B6D","A13WTEQ06V3B6D_sheep","wolf",2,1201030,788.5,250,"chase","sheep",1,5,"Hit","sheep"
4,"sheep-and-wolf","10/17/2023","sheep",NA,"A13WTEQ06V3B6D","A13WTEQ06V3B6D_sheep","wolf",3,1208243,1944.29999995232,238,"mirror","dist",0,1,"CR","dist6"
4,"sheep-and-wolf","10/17/2023","sheep",NA,"A13WTEQ06V3B6D","A13WTEQ06V3B6D_sheep","wolf",4,1215423,1656.30000019073,257,"chase","sheep",1,5,"Hit","sheep"
4,"sheep-and-wolf","10/17/2023","sheep",NA,"A13WTEQ06V3B6D","A13WTEQ06V3B6D_sheep","wolf",5,1222326,1292.40000009537,252,"mirror","dist",0,1,"CR","dist4"
4,"sheep-and-wolf","10/17/2023","sheep",NA,"A13WTEQ06V3B6D","A13WTEQ06V3B6D_sheep","wolf",6,1229001,841,244,"chase","sheep",1,5,"Hit","sheep"
4,"sheep-and-wolf","10/17/2023","sheep",NA,"A13WTEQ06V3B6D","A13WTEQ06V3B6D_sheep","wolf",7,1236952,2252.29999995232,268,"chase","sheep",1,4,"Hit","sheep"
4,"sheep-and-wolf","10/17/2023","sheep",NA,"A13WTEQ06V3B6D","A13WTEQ06V3B6D_sheep","wolf",8,1243706,841.399999856949,274,"chase","sheep",1,4,"Hit","sheep"
4,"sheep-and-wolf","10/17/2023","sheep",NA,"A13WTEQ06V3B6D","A13WTEQ06V3B6D_sheep","wolf",9,1250312,984.699999809265,236,"chase","wolf",0,2,"Ms","wolf"
4,"sheep-and-wolf","10/17/2023","sheep",NA,"A13WTEQ06V3B6D","A13WTEQ06V3B6D_sheep","wolf",10,1257889,2347.89999985695,200,"mirror","wolf",0,1,"CR","wolf"
4,"sheep-and-wolf","10/17/2023","sheep",NA,"A13WTEQ06V3B6D","A13WTEQ06V3B6D_sheep","wolf",11,1264711,1601.90000009537,212,"chase","sheep",1,3,"Hit","sheep"
4,"sheep-and-wolf","10/17/2023","sheep",NA,"A13WTEQ06V3B6D","A13WTEQ06V3B6D_sheep","wolf",12,1271260,878,239,"mirror","dist",0,1,"CR","dist3"
4,"sheep-and-wolf","10/17/2023","sheep",NA,"A13WTEQ06V3B6D","A13WTEQ06V3B6D_sheep","wolf",13,1278385,1983,154,"mirror","dist",0,1,"CR","dist5"
4,"sheep-and-wolf","10/17/2023","sheep",NA,"A13WTEQ06V3B6D","A13WTEQ06V3B6D_sheep","wolf",14,1286023,1376.60000014305,211,"mirror","dist",0,1,"CR","dist1"
4,"sheep-and-wolf","10/17/2023","sheep",NA,"A13WTEQ06V3B6D","A13WTEQ06V3B6D_sheep","wolf",15,1292556,969.299999952316,245,"chase","sheep",1,2,"Hit","sheep"
4,"sheep-and-wolf","10/17/2023","sheep",NA,"A13WTEQ06V3B6D","A13WTEQ06V3B6D_sheep","wolf",16,1299402,982.100000143051,220,"chase","dist",0,2,"Ms","dist4"
4,"sheep-and-wolf","10/17/2023","sheep",NA,"A13WTEQ06V3B6D","A13WTEQ06V3B6D_sheep","wolf",17,1306059,1193.59999990463,32,"chase","sheep",1,4,"Hit","sheep"
4,"sheep-and-wolf","10/17/2023","sheep",NA,"A13WTEQ06V3B6D","A13WTEQ06V3B6D_sheep","wolf",18,1312640,974.199999809265,21,"chase","sheep",1,4,"Hit","sheep"
4,"sheep-and-wolf","10/17/2023","sheep",NA,"A13WTEQ06V3B6D","A13WTEQ06V3B6D_sheep","wolf",19,1319250,876.100000143051,196,"mirror","dist",0,1,"CR","dist1"
4,"sheep-and-wolf","10/17/2023","sheep",NA,"A13WTEQ06V3B6D","A13WTEQ06V3B6D_sheep","wolf",20,1325299,854.799999952316,261,"chase","dist",0,1,"Ms","dist5"
4,"sheep-and-wolf","10/17/2023","sheep",NA,"A13WTEQ06V3B6D","A13WTEQ06V3B6D_sheep","wolf",21,1331687,811,293,"chase","sheep",1,4,"Hit","sheep"
4,"sheep-and-wolf","10/17/2023","sheep",NA,"A13WTEQ06V3B6D","A13WTEQ06V3B6D_sheep","wolf",22,1339143,1397.29999995232,41,"chase","sheep",1,2,"Hit","sheep"
4,"sheep-and-wolf","10/17/2023","sheep",NA,"A13WTEQ06V3B6D","A13WTEQ06V3B6D_sheep","wolf",23,1345386,812.799999952316,23,"chase","sheep",1,4,"Hit","sheep"
4,"sheep-and-wolf","10/17/2023","sheep",NA,"A13WTEQ06V3B6D","A13WTEQ06V3B6D_sheep","wolf",24,1351659,717.699999809265,72,"chase","sheep",1,4,"Hit","sheep"
4,"sheep-and-wolf","10/17/2023","sheep",NA,"A13WTEQ06V3B6D","A13WTEQ06V3B6D_sheep","wolf",25,1358175,935.099999904633,5,"chase","sheep",1,5,"Hit","sheep"
4,"sheep-and-wolf","10/17/2023","sheep",NA,"A13WTEQ06V3B6D","A13WTEQ06V3B6D_sheep","wolf",26,1364577,869,267,"chase","sheep",1,3,"Hit","sheep"
4,"sheep-and-wolf","10/17/2023","sheep",NA,"A13WTEQ06V3B6D","A13WTEQ06V3B6D_sheep","wolf",27,1370974,783.399999856949,37,"chase","sheep",1,5,"Hit","sheep"
4,"sheep-and-wolf","10/17/2023","sheep",NA,"A13WTEQ06V3B6D","A13WTEQ06V3B6D_sheep","wolf",28,1377381,1310.39999985695,243,"chase","sheep",1,1,"Hit","sheep"
4,"sheep-and-wolf","10/17/2023","sheep",NA,"A13WTEQ06V3B6D","A13WTEQ06V3B6D_sheep","wolf",29,1384106,1195.90000009537,179,"chase","sheep",1,5,"Hit","sheep"
4,"sheep-and-wolf","10/17/2023","sheep",NA,"A13WTEQ06V3B6D","A13WTEQ06V3B6D_sheep","wolf",30,1390664,1044.90000009537,62,"chase","sheep",1,3,"Hit","sheep"
4,"sheep-and-wolf","10/17/2023","sheep",NA,"A13WTEQ06V3B6D","A13WTEQ06V3B6D_sheep","wolf",31,1397030,816.200000047684,289,"chase","sheep",1,5,"Hit","sheep"
4,"sheep-and-wolf","10/17/2023","sheep",NA,"A13WTEQ06V3B6D","A13WTEQ06V3B6D_sheep","wolf",32,1403410,628.900000095367,263,"chase","sheep",1,5,"Hit","sheep"
4,"sheep-and-wolf","10/17/2023","sheep",NA,"A13WTEQ06V3B6D","A13WTEQ06V3B6D_sheep","wolf",33,1409967,1086.30000019073,292,"chase","sheep",1,5,"Hit","sheep"
4,"sheep-and-wolf","10/17/2023","sheep",NA,"A13WTEQ06V3B6D","A13WTEQ06V3B6D_sheep","wolf",34,1416422,815.299999952316,194,"mirror","dist",0,3,"CR","dist2"
4,"sheep-and-wolf","10/17/2023","sheep",NA,"A13WTEQ06V3B6D","A13WTEQ06V3B6D_sheep","wolf",35,1423185,1446.70000004768,22,"mirror","dist",0,3,"CR","dist5"
4,"sheep-and-wolf","10/17/2023","sheep",NA,"A13WTEQ06V3B6D","A13WTEQ06V3B6D_sheep","wolf",36,1429811,1411,197,"mirror","dist",0,1,"CR","dist5"
4,"sheep-and-wolf","10/17/2023","sheep",NA,"A13WTEQ06V3B6D","A13WTEQ06V3B6D_sheep","wolf",37,1436293,1134.09999990463,51,"mirror","dist",0,1,"CR","dist1"
4,"sheep-and-wolf","10/17/2023","sheep",NA,"A13WTEQ06V3B6D","A13WTEQ06V3B6D_sheep","wolf",38,1443263,1808.29999995232,111,"mirror","wolf",0,1,"CR","wolf"
4,"sheep-and-wolf","10/17/2023","sheep",NA,"A13WTEQ06V3B6D","A13WTEQ06V3B6D_sheep","wolf",39,1450017,1595.19999980927,144,"mirror","dist",0,1,"CR","dist5"
4,"sheep-and-wolf","10/17/2023","sheep",NA,"A13WTEQ06V3B6D","A13WTEQ06V3B6D_sheep","wolf",40,1457000,1790.89999985695,195,"mirror","dist",0,1,"CR","dist2"
4,"sheep-and-wolf","10/17/2023","sheep",NA,"A13WTEQ06V3B6D","A13WTEQ06V3B6D_sheep","wolf",41,1464261,1948.5,275,"mirror","dist",0,3,"CR","dist1"
4,"sheep-and-wolf","10/17/2023","sheep",NA,"A13WTEQ06V3B6D","A13WTEQ06V3B6D_sheep","wolf",42,1470384,924.900000095367,187,"chase","sheep",1,1,"Hit","sheep"
4,"sheep-and-wolf","10/17/2023","sheep",NA,"A13WTEQ06V3B6D","A13WTEQ06V3B6D_sheep","wolf",43,1478650,3016,174,"mirror","dist",0,1,"CR","dist1"
4,"sheep-and-wolf","10/17/2023","sheep",NA,"A13WTEQ06V3B6D","A13WTEQ06V3B6D_sheep","wolf",44,1484966,759.799999952316,71,"chase","sheep",1,4,"Hit","sheep"
4,"sheep-and-wolf","10/17/2023","sheep",NA,"A13WTEQ06V3B6D","A13WTEQ06V3B6D_sheep","wolf",45,1492616,1718.20000004768,228,"mirror","dist",0,1,"CR","dist5"
4,"sheep-and-wolf","10/17/2023","sheep",NA,"A13WTEQ06V3B6D","A13WTEQ06V3B6D_sheep","wolf",46,1500620,2374.29999995232,163,"mirror","dist",0,1,"CR","dist6"
4,"sheep-and-wolf","10/17/2023","sheep",NA,"A13WTEQ06V3B6D","A13WTEQ06V3B6D_sheep","wolf",47,1508815,3054,148,"mirror","dist",0,1,"CR","dist3"
4,"sheep-and-wolf","10/17/2023","sheep",NA,"A13WTEQ06V3B6D","A13WTEQ06V3B6D_sheep","wolf",48,1516007,1947.20000004768,128,"mirror","dist",0,1,"CR","dist1"
4,"sheep-and-wolf","10/17/2023","sheep",NA,"A13WTEQ06V3B6D","A13WTEQ06V3B6D_sheep","wolf",49,1523831,2573.69999980927,52,"mirror","dist",0,1,"CR","dist5"
