"experiment","version","interview_date","task","PROLIFIC_PID","workerId","identifier","first","trial_num","time_elapsed","reaction_time","trial_id","condition","choice","correct","confidence","cells","selected"
5,"sheep-and-wolf","10/31/2023","sheep",NA,"A10249252O9I20MRSOBVF","A10249252O9I20MRSOBVF_sheep","sheep",1,172881,1617.20000004768,184,"mirror","wolf",0,2,"CR","wolf"
5,"sheep-and-wolf","10/31/2023","sheep",NA,"A10249252O9I20MRSOBVF","A10249252O9I20MRSOBVF_sheep","sheep",2,179936,1097.5,171,"chase","sheep",1,4,"Hit","sheep"
5,"sheep-and-wolf","10/31/2023","sheep",NA,"A10249252O9I20MRSOBVF","A10249252O9I20MRSOBVF_sheep","sheep",3,186651,782.200000047684,172,"chase","sheep",1,4,"Hit","sheep"
5,"sheep-and-wolf","10/31/2023","sheep",NA,"A10249252O9I20MRSOBVF","A10249252O9I20MRSOBVF_sheep","sheep",4,196405,3756.70000004768,155,"mirror","sheep",1,1,"FA","sheep"
5,"sheep-and-wolf","10/31/2023","sheep",NA,"A10249252O9I20MRSOBVF","A10249252O9I20MRSOBVF_sheep","sheep",5,204478,2213.40000009537,240,"mirror","dist",0,1,"CR","dist6"
5,"sheep-and-wolf","10/31/2023","sheep",NA,"A10249252O9I20MRSOBVF","A10249252O9I20MRSOBVF_sheep","sheep",6,211565,1256.70000004768,167,"chase","sheep",1,1,"Hit","sheep"
5,"sheep-and-wolf","10/31/2023","sheep",NA,"A10249252O9I20MRSOBVF","A10249252O9I20MRSOBVF_sheep","sheep",7,218706,1095.29999995232,264,"mirror","dist",0,3,"CR","dist4"
5,"sheep-and-wolf","10/31/2023","sheep",NA,"A10249252O9I20MRSOBVF","A10249252O9I20MRSOBVF_sheep","sheep",8,225375,889.200000047684,241,"mirror","dist",0,3,"CR","dist4"
5,"sheep-and-wolf","10/31/2023","sheep",NA,"A10249252O9I20MRSOBVF","A10249252O9I20MRSOBVF_sheep","sheep",9,233270,2137.29999995232,262,"chase","dist",0,1,"Ms","dist1"
5,"sheep-and-wolf","10/31/2023","sheep",NA,"A10249252O9I20MRSOBVF","A10249252O9I20MRSOBVF_sheep","sheep",10,240343,890.799999952316,180,"chase","sheep",1,4,"Hit","sheep"
5,"sheep-and-wolf","10/31/2023","sheep",NA,"A10249252O9I20MRSOBVF","A10249252O9I20MRSOBVF_sheep","sheep",11,247131,1080.70000004768,154,"mirror","dist",0,2,"CR","dist4"
5,"sheep-and-wolf","10/31/2023","sheep",NA,"A10249252O9I20MRSOBVF","A10249252O9I20MRSOBVF_sheep","sheep",12,254120,959.299999952316,159,"chase","sheep",1,4,"Hit","sheep"
5,"sheep-and-wolf","10/31/2023","sheep",NA,"A10249252O9I20MRSOBVF","A10249252O9I20MRSOBVF_sheep","sheep",13,263678,3622.09999990463,185,"chase","dist",0,1,"Ms","dist3"
5,"sheep-and-wolf","10/31/2023","sheep",NA,"A10249252O9I20MRSOBVF","A10249252O9I20MRSOBVF_sheep","sheep",14,270822,1225.19999980927,249,"mirror","wolf",0,1,"CR","wolf"
5,"sheep-and-wolf","10/31/2023","sheep",NA,"A10249252O9I20MRSOBVF","A10249252O9I20MRSOBVF_sheep","sheep",15,277678,1085.79999995232,102,"chase","sheep",1,3,"Hit","sheep"
5,"sheep-and-wolf","10/31/2023","sheep",NA,"A10249252O9I20MRSOBVF","A10249252O9I20MRSOBVF_sheep","sheep",16,284843,702.100000143051,203,"chase","sheep",1,5,"Hit","sheep"
5,"sheep-and-wolf","10/31/2023","sheep",NA,"A10249252O9I20MRSOBVF","A10249252O9I20MRSOBVF_sheep","sheep",17,294169,1068.90000009537,201,"chase","wolf",0,1,"Ms","wolf"
5,"sheep-and-wolf","10/31/2023","sheep",NA,"A10249252O9I20MRSOBVF","A10249252O9I20MRSOBVF_sheep","sheep",18,301759,1781,81,"chase","sheep",1,2,"Hit","sheep"
5,"sheep-and-wolf","10/31/2023","sheep",NA,"A10249252O9I20MRSOBVF","A10249252O9I20MRSOBVF_sheep","sheep",19,308994,921.900000095367,99,"chase","sheep",1,4,"Hit","sheep"
5,"sheep-and-wolf","10/31/2023","sheep",NA,"A10249252O9I20MRSOBVF","A10249252O9I20MRSOBVF_sheep","sheep",20,316135,1262.29999995232,199,"chase","dist",0,1,"Ms","dist3"
5,"sheep-and-wolf","10/31/2023","sheep",NA,"A10249252O9I20MRSOBVF","A10249252O9I20MRSOBVF_sheep","sheep",21,322879,836.200000047684,113,"chase","sheep",1,5,"Hit","sheep"
5,"sheep-and-wolf","10/31/2023","sheep",NA,"A10249252O9I20MRSOBVF","A10249252O9I20MRSOBVF_sheep","sheep",22,330095,1416.5,94,"mirror","dist",0,1,"CR","dist2"
5,"sheep-and-wolf","10/31/2023","sheep",NA,"A10249252O9I20MRSOBVF","A10249252O9I20MRSOBVF_sheep","sheep",23,340761,4813.5,40,"chase","dist",0,1,"Ms","dist4"
5,"sheep-and-wolf","10/31/2023","sheep",NA,"A10249252O9I20MRSOBVF","A10249252O9I20MRSOBVF_sheep","sheep",24,349380,2634.70000004768,41,"mirror","dist",0,1,"CR","dist6"
5,"sheep-and-wolf","10/31/2023","sheep",NA,"A10249252O9I20MRSOBVF","A10249252O9I20MRSOBVF_sheep","sheep",25,356711,998.200000047684,80,"mirror","dist",0,3,"CR","dist5"
5,"sheep-and-wolf","10/31/2023","sheep",NA,"A10249252O9I20MRSOBVF","A10249252O9I20MRSOBVF_sheep","sheep",26,365142,2691.40000009537,234,"mirror","dist",0,1,"CR","dist5"
5,"sheep-and-wolf","10/31/2023","sheep",NA,"A10249252O9I20MRSOBVF","A10249252O9I20MRSOBVF_sheep","sheep",27,372514,885,111,"chase","sheep",1,4,"Hit","sheep"
5,"sheep-and-wolf","10/31/2023","sheep",NA,"A10249252O9I20MRSOBVF","A10249252O9I20MRSOBVF_sheep","sheep",28,381058,2771.90000009537,236,"mirror","dist",0,1,"CR","dist5"
5,"sheep-and-wolf","10/31/2023","sheep",NA,"A10249252O9I20MRSOBVF","A10249252O9I20MRSOBVF_sheep","sheep",29,388293,1052.10000014305,98,"chase","sheep",1,4,"Hit","sheep"
5,"sheep-and-wolf","10/31/2023","sheep",NA,"A10249252O9I20MRSOBVF","A10249252O9I20MRSOBVF_sheep","sheep",30,395316,1075.59999990463,8,"mirror","dist",0,3,"CR","dist3"
5,"sheep-and-wolf","10/31/2023","sheep",NA,"A10249252O9I20MRSOBVF","A10249252O9I20MRSOBVF_sheep","sheep",31,402368,1061.39999985695,90,"chase","sheep",1,3,"Hit","sheep"
5,"sheep-and-wolf","10/31/2023","sheep",NA,"A10249252O9I20MRSOBVF","A10249252O9I20MRSOBVF_sheep","sheep",32,410277,1892.39999985695,108,"chase","dist",0,1,"Ms","dist4"
5,"sheep-and-wolf","10/31/2023","sheep",NA,"A10249252O9I20MRSOBVF","A10249252O9I20MRSOBVF_sheep","sheep",33,417323,1297.5,173,"chase","sheep",1,1,"Hit","sheep"
5,"sheep-and-wolf","10/31/2023","sheep",NA,"A10249252O9I20MRSOBVF","A10249252O9I20MRSOBVF_sheep","sheep",34,424146,1043.90000009537,198,"mirror","sheep",1,2,"FA","sheep"
5,"sheep-and-wolf","10/31/2023","sheep",NA,"A10249252O9I20MRSOBVF","A10249252O9I20MRSOBVF_sheep","sheep",35,430965,946.799999952316,224,"chase","sheep",1,5,"Hit","sheep"
5,"sheep-and-wolf","10/31/2023","sheep",NA,"A10249252O9I20MRSOBVF","A10249252O9I20MRSOBVF_sheep","sheep",36,438237,1272.29999995232,63,"chase","wolf",0,2,"Ms","wolf"
5,"sheep-and-wolf","10/31/2023","sheep",NA,"A10249252O9I20MRSOBVF","A10249252O9I20MRSOBVF_sheep","sheep",37,445386,1459.80000019073,254,"mirror","dist",0,1,"CR","dist1"
5,"sheep-and-wolf","10/31/2023","sheep",NA,"A10249252O9I20MRSOBVF","A10249252O9I20MRSOBVF_sheep","sheep",38,453008,1645,183,"chase","wolf",0,1,"Ms","wolf"
5,"sheep-and-wolf","10/31/2023","sheep",NA,"A10249252O9I20MRSOBVF","A10249252O9I20MRSOBVF_sheep","sheep",39,460022,1240,50,"mirror","sheep",1,1,"FA","sheep"
5,"sheep-and-wolf","10/31/2023","sheep",NA,"A10249252O9I20MRSOBVF","A10249252O9I20MRSOBVF_sheep","sheep",40,467418,1727.90000009537,15,"mirror","dist",0,2,"CR","dist2"
5,"sheep-and-wolf","10/31/2023","sheep",NA,"A10249252O9I20MRSOBVF","A10249252O9I20MRSOBVF_sheep","sheep",41,474363,1221.70000004768,56,"mirror","dist",0,1,"CR","dist4"
5,"sheep-and-wolf","10/31/2023","sheep",NA,"A10249252O9I20MRSOBVF","A10249252O9I20MRSOBVF_sheep","sheep",42,481320,1223.20000004768,4,"mirror","sheep",1,1,"FA","sheep"
5,"sheep-and-wolf","10/31/2023","sheep",NA,"A10249252O9I20MRSOBVF","A10249252O9I20MRSOBVF_sheep","sheep",43,488382,1354.59999990463,256,"mirror","dist",0,1,"CR","dist6"
5,"sheep-and-wolf","10/31/2023","sheep",NA,"A10249252O9I20MRSOBVF","A10249252O9I20MRSOBVF_sheep","sheep",44,495161,1056.29999995232,75,"chase","dist",0,1,"Ms","dist5"
5,"sheep-and-wolf","10/31/2023","sheep",NA,"A10249252O9I20MRSOBVF","A10249252O9I20MRSOBVF_sheep","sheep",45,502135,1345.10000014305,204,"mirror","dist",0,1,"CR","dist1"
5,"sheep-and-wolf","10/31/2023","sheep",NA,"A10249252O9I20MRSOBVF","A10249252O9I20MRSOBVF_sheep","sheep",46,510340,1133,259,"chase","dist",0,3,"Ms","dist5"
5,"sheep-and-wolf","10/31/2023","sheep",NA,"A10249252O9I20MRSOBVF","A10249252O9I20MRSOBVF_sheep","sheep",47,517108,929.799999952316,105,"chase","sheep",1,4,"Hit","sheep"
5,"sheep-and-wolf","10/31/2023","sheep",NA,"A10249252O9I20MRSOBVF","A10249252O9I20MRSOBVF_sheep","sheep",48,523754,967.100000143051,87,"mirror","dist",0,3,"CR","dist3"
5,"sheep-and-wolf","10/31/2023","sheep",NA,"A10249252O9I20MRSOBVF","A10249252O9I20MRSOBVF_sheep","sheep",49,531335,765.800000190735,36,"mirror","sheep",1,4,"FA","sheep"
5,"sheep-and-wolf","10/31/2023","sheep",NA,"A10249252O9I20MRSOBVF","A10249252O9I20MRSOBVF_sheep","sheep",50,538073,1060.40000009537,79,"chase","sheep",1,3,"Hit","sheep"
5,"sheep-and-wolf","10/31/2023","sheep",NA,"A10249252O9I20MRSOBVF","A10249252O9I20MRSOBVF_sheep","sheep",51,545049,1159.59999990463,251,"chase","sheep",1,1,"Hit","sheep"
5,"sheep-and-wolf","10/31/2023","sheep",NA,"A10249252O9I20MRSOBVF","A10249252O9I20MRSOBVF_sheep","sheep",52,867880,2038.90000009537,42,"mirror","wolf",0,1,"CR","wolf"
5,"sheep-and-wolf","10/31/2023","sheep",NA,"A10249252O9I20MRSOBVF","A10249252O9I20MRSOBVF_sheep","sheep",53,874806,1066.90000009537,38,"chase","dist",0,3,"Ms","dist2"
5,"sheep-and-wolf","10/31/2023","sheep",NA,"A10249252O9I20MRSOBVF","A10249252O9I20MRSOBVF_sheep","sheep",54,881666,898.099999904633,248,"chase","sheep",1,5,"Hit","sheep"
5,"sheep-and-wolf","10/31/2023","sheep",NA,"A10249252O9I20MRSOBVF","A10249252O9I20MRSOBVF_sheep","sheep",55,889252,1773.89999985695,96,"mirror","sheep",1,1,"FA","sheep"
5,"sheep-and-wolf","10/31/2023","sheep",NA,"A10249252O9I20MRSOBVF","A10249252O9I20MRSOBVF_sheep","sheep",56,896342,1303.90000009537,217,"chase","dist",0,1,"Ms","dist1"
5,"sheep-and-wolf","10/31/2023","sheep",NA,"A10249252O9I20MRSOBVF","A10249252O9I20MRSOBVF_sheep","sheep",57,903454,1245.70000004768,290,"chase","dist",0,3,"Ms","dist5"
5,"sheep-and-wolf","10/31/2023","sheep",NA,"A10249252O9I20MRSOBVF","A10249252O9I20MRSOBVF_sheep","sheep",58,910785,1628.70000004768,218,"mirror","dist",0,1,"CR","dist4"
5,"sheep-and-wolf","10/31/2023","sheep",NA,"A10249252O9I20MRSOBVF","A10249252O9I20MRSOBVF_sheep","sheep",59,917663,1085.20000004768,26,"mirror","dist",0,3,"CR","dist4"
5,"sheep-and-wolf","10/31/2023","sheep",NA,"A10249252O9I20MRSOBVF","A10249252O9I20MRSOBVF_sheep","sheep",60,925127,1735.60000014305,65,"mirror","dist",0,1,"CR","dist3"
5,"sheep-and-wolf","10/31/2023","sheep",NA,"A10249252O9I20MRSOBVF","A10249252O9I20MRSOBVF_sheep","sheep",61,3044553,962.099999904633,103,"mirror","dist",0,2,"CR","dist1"
5,"sheep-and-wolf","10/31/2023","sheep",NA,"A10249252O9I20MRSOBVF","A10249252O9I20MRSOBVF_sheep","sheep",62,3052405,2141.69999980927,260,"mirror","dist",0,2,"CR","dist3"
5,"sheep-and-wolf","10/31/2023","sheep",NA,"A10249252O9I20MRSOBVF","A10249252O9I20MRSOBVF_sheep","sheep",63,3060121,1919.40000009537,299,"mirror","wolf",0,1,"CR","wolf"
5,"sheep-and-wolf","10/31/2023","sheep",NA,"A10249252O9I20MRSOBVF","A10249252O9I20MRSOBVF_sheep","sheep",64,3068158,2240.5,91,"mirror","dist",0,1,"CR","dist4"
5,"sheep-and-wolf","10/31/2023","sheep",NA,"A10249252O9I20MRSOBVF","A10249252O9I20MRSOBVF_sheep","sheep",65,3075279,1480.90000009537,112,"mirror","sheep",1,1,"FA","sheep"
5,"sheep-and-wolf","10/31/2023","sheep",NA,"A10249252O9I20MRSOBVF","A10249252O9I20MRSOBVF_sheep","sheep",66,3082758,1359.5,51,"chase","dist",0,1,"Ms","dist5"
5,"sheep-and-wolf","10/31/2023","sheep",NA,"A10249252O9I20MRSOBVF","A10249252O9I20MRSOBVF_sheep","sheep",67,3090645,1519.69999980927,110,"mirror","sheep",1,2,"FA","sheep"
5,"sheep-and-wolf","10/31/2023","sheep",NA,"A10249252O9I20MRSOBVF","A10249252O9I20MRSOBVF_sheep","sheep",68,3098076,1716.40000009537,252,"mirror","sheep",1,1,"FA","sheep"
5,"sheep-and-wolf","10/31/2023","sheep",NA,"A10249252O9I20MRSOBVF","A10249252O9I20MRSOBVF_sheep","sheep",69,3106300,2532.29999995232,263,"chase","dist",0,1,"Ms","dist3"
5,"sheep-and-wolf","10/31/2023","sheep",NA,"A10249252O9I20MRSOBVF","A10249252O9I20MRSOBVF_sheep","sheep",70,3113343,926.899999856949,57,"chase","sheep",1,5,"Hit","sheep"
5,"sheep-and-wolf","10/31/2023","wolf",NA,"A10249252O9I20MRSOBVF","A10249252O9I20MRSOBVF_wolf","sheep",1,3739799,973.900000095367,184,"mirror","dist",0,3,"CR","dist1"
5,"sheep-and-wolf","10/31/2023","wolf",NA,"A10249252O9I20MRSOBVF","A10249252O9I20MRSOBVF_wolf","sheep",2,3749466,3277.5,171,"chase","wolf",1,4,"Hit","wolf"
5,"sheep-and-wolf","10/31/2023","wolf",NA,"A10249252O9I20MRSOBVF","A10249252O9I20MRSOBVF_wolf","sheep",3,3756281,771.799999952316,172,"chase","wolf",1,5,"Hit","wolf"
5,"sheep-and-wolf","10/31/2023","wolf",NA,"A10249252O9I20MRSOBVF","A10249252O9I20MRSOBVF_wolf","sheep",4,3763527,1439.40000009537,155,"mirror","sheep",0,1,"CR","sheep"
5,"sheep-and-wolf","10/31/2023","wolf",NA,"A10249252O9I20MRSOBVF","A10249252O9I20MRSOBVF_wolf","sheep",5,3770755,1544.70000004768,240,"mirror","dist",0,1,"CR","dist4"
5,"sheep-and-wolf","10/31/2023","wolf",NA,"A10249252O9I20MRSOBVF","A10249252O9I20MRSOBVF_wolf","sheep",6,3777717,1242.79999995232,167,"chase","sheep",0,1,"Ms","sheep"
5,"sheep-and-wolf","10/31/2023","wolf",NA,"A10249252O9I20MRSOBVF","A10249252O9I20MRSOBVF_wolf","sheep",7,3784578,1205.60000014305,264,"mirror","dist",0,1,"CR","dist5"
5,"sheep-and-wolf","10/31/2023","wolf",NA,"A10249252O9I20MRSOBVF","A10249252O9I20MRSOBVF_wolf","sheep",8,3791413,1061.59999990463,241,"mirror","dist",0,2,"CR","dist5"
5,"sheep-and-wolf","10/31/2023","wolf",NA,"A10249252O9I20MRSOBVF","A10249252O9I20MRSOBVF_wolf","sheep",9,3798392,1195.70000004768,262,"chase","sheep",0,2,"Ms","sheep"
5,"sheep-and-wolf","10/31/2023","wolf",NA,"A10249252O9I20MRSOBVF","A10249252O9I20MRSOBVF_wolf","sheep",10,3804945,894.299999952316,180,"chase","dist",0,3,"Ms","dist3"
5,"sheep-and-wolf","10/31/2023","wolf",NA,"A10249252O9I20MRSOBVF","A10249252O9I20MRSOBVF_wolf","sheep",11,3812185,1037.89999985695,154,"mirror","sheep",0,3,"CR","sheep"
5,"sheep-and-wolf","10/31/2023","wolf",NA,"A10249252O9I20MRSOBVF","A10249252O9I20MRSOBVF_wolf","sheep",12,3819098,921.299999952316,159,"chase","wolf",1,4,"Hit","wolf"
5,"sheep-and-wolf","10/31/2023","wolf",NA,"A10249252O9I20MRSOBVF","A10249252O9I20MRSOBVF_wolf","sheep",13,3825793,946.200000047684,185,"chase","wolf",1,4,"Hit","wolf"
5,"sheep-and-wolf","10/31/2023","wolf",NA,"A10249252O9I20MRSOBVF","A10249252O9I20MRSOBVF_wolf","sheep",14,3833835,2364.79999995232,249,"mirror","wolf",1,2,"FA","wolf"
5,"sheep-and-wolf","10/31/2023","wolf",NA,"A10249252O9I20MRSOBVF","A10249252O9I20MRSOBVF_wolf","sheep",15,3840733,1161.90000009537,102,"chase","dist",0,1,"Ms","dist3"
5,"sheep-and-wolf","10/31/2023","wolf",NA,"A10249252O9I20MRSOBVF","A10249252O9I20MRSOBVF_wolf","sheep",16,3850141,3258.09999990463,203,"chase","wolf",1,4,"Hit","wolf"
5,"sheep-and-wolf","10/31/2023","wolf",NA,"A10249252O9I20MRSOBVF","A10249252O9I20MRSOBVF_wolf","sheep",17,3857234,1240.10000014305,201,"chase","dist",0,3,"Ms","dist2"
5,"sheep-and-wolf","10/31/2023","wolf",NA,"A10249252O9I20MRSOBVF","A10249252O9I20MRSOBVF_wolf","sheep",18,3864019,1070.79999995232,81,"chase","dist",0,4,"Ms","dist3"
5,"sheep-and-wolf","10/31/2023","wolf",NA,"A10249252O9I20MRSOBVF","A10249252O9I20MRSOBVF_wolf","sheep",19,3870813,1019,99,"chase","wolf",1,5,"Hit","wolf"
5,"sheep-and-wolf","10/31/2023","wolf",NA,"A10249252O9I20MRSOBVF","A10249252O9I20MRSOBVF_wolf","sheep",20,3878150,1600.10000014305,199,"chase","dist",0,2,"Ms","dist1"
5,"sheep-and-wolf","10/31/2023","wolf",NA,"A10249252O9I20MRSOBVF","A10249252O9I20MRSOBVF_wolf","sheep",21,3885081,1108,113,"chase","wolf",1,5,"Hit","wolf"
5,"sheep-and-wolf","10/31/2023","wolf",NA,"A10249252O9I20MRSOBVF","A10249252O9I20MRSOBVF_wolf","sheep",22,3891903,1112.10000014305,94,"mirror","dist",0,2,"CR","dist2"
5,"sheep-and-wolf","10/31/2023","wolf",NA,"A10249252O9I20MRSOBVF","A10249252O9I20MRSOBVF_wolf","sheep",23,3899069,1108.59999990463,40,"chase","dist",0,2,"Ms","dist2"
5,"sheep-and-wolf","10/31/2023","wolf",NA,"A10249252O9I20MRSOBVF","A10249252O9I20MRSOBVF_wolf","sheep",24,3906065,1270.20000004768,41,"mirror","dist",0,1,"CR","dist1"
5,"sheep-and-wolf","10/31/2023","wolf",NA,"A10249252O9I20MRSOBVF","A10249252O9I20MRSOBVF_wolf","sheep",25,3912936,1072.29999995232,80,"mirror","dist",0,2,"CR","dist4"
5,"sheep-and-wolf","10/31/2023","wolf",NA,"A10249252O9I20MRSOBVF","A10249252O9I20MRSOBVF_wolf","sheep",26,3920907,2190.79999995232,234,"mirror","dist",0,1,"CR","dist6"
5,"sheep-and-wolf","10/31/2023","wolf",NA,"A10249252O9I20MRSOBVF","A10249252O9I20MRSOBVF_wolf","sheep",27,3927744,986.200000047684,111,"chase","wolf",1,1,"Hit","wolf"
5,"sheep-and-wolf","10/31/2023","wolf",NA,"A10249252O9I20MRSOBVF","A10249252O9I20MRSOBVF_wolf","sheep",28,3935620,2005.59999990463,236,"mirror","dist",0,3,"CR","dist4"
5,"sheep-and-wolf","10/31/2023","wolf",NA,"A10249252O9I20MRSOBVF","A10249252O9I20MRSOBVF_wolf","sheep",29,3942458,1116.10000014305,98,"chase","wolf",1,1,"Hit","wolf"
5,"sheep-and-wolf","10/31/2023","wolf",NA,"A10249252O9I20MRSOBVF","A10249252O9I20MRSOBVF_wolf","sheep",30,3950290,2089.89999985695,8,"mirror","dist",0,1,"CR","dist1"
5,"sheep-and-wolf","10/31/2023","wolf",NA,"A10249252O9I20MRSOBVF","A10249252O9I20MRSOBVF_wolf","sheep",31,3957322,1242,90,"chase","wolf",1,2,"Hit","wolf"
5,"sheep-and-wolf","10/31/2023","wolf",NA,"A10249252O9I20MRSOBVF","A10249252O9I20MRSOBVF_wolf","sheep",32,3964126,1021.19999980927,108,"chase","wolf",1,4,"Hit","wolf"
5,"sheep-and-wolf","10/31/2023","wolf",NA,"A10249252O9I20MRSOBVF","A10249252O9I20MRSOBVF_wolf","sheep",33,3970943,1045.69999980927,173,"chase","dist",0,4,"Ms","dist6"
5,"sheep-and-wolf","10/31/2023","wolf",NA,"A10249252O9I20MRSOBVF","A10249252O9I20MRSOBVF_wolf","sheep",34,3977771,1073.69999980927,198,"mirror","dist",0,2,"CR","dist1"
5,"sheep-and-wolf","10/31/2023","wolf",NA,"A10249252O9I20MRSOBVF","A10249252O9I20MRSOBVF_wolf","sheep",35,3984465,859.200000047684,224,"chase","wolf",1,5,"Hit","wolf"
5,"sheep-and-wolf","10/31/2023","wolf",NA,"A10249252O9I20MRSOBVF","A10249252O9I20MRSOBVF_wolf","sheep",36,3991086,770.299999952316,63,"chase","wolf",1,5,"Hit","wolf"
5,"sheep-and-wolf","10/31/2023","wolf",NA,"A10249252O9I20MRSOBVF","A10249252O9I20MRSOBVF_wolf","sheep",37,3998018,1205.90000009537,254,"mirror","dist",0,1,"CR","dist4"
5,"sheep-and-wolf","10/31/2023","wolf",NA,"A10249252O9I20MRSOBVF","A10249252O9I20MRSOBVF_wolf","sheep",38,4004738,992.600000143051,183,"chase","wolf",1,3,"Hit","wolf"
5,"sheep-and-wolf","10/31/2023","wolf",NA,"A10249252O9I20MRSOBVF","A10249252O9I20MRSOBVF_wolf","sheep",39,4011466,1031.10000014305,50,"mirror","sheep",0,1,"CR","sheep"
5,"sheep-and-wolf","10/31/2023","wolf",NA,"A10249252O9I20MRSOBVF","A10249252O9I20MRSOBVF_wolf","sheep",40,4018420,1313.80000019073,15,"mirror","dist",0,1,"CR","dist2"
5,"sheep-and-wolf","10/31/2023","wolf",NA,"A10249252O9I20MRSOBVF","A10249252O9I20MRSOBVF_wolf","sheep",41,4025060,973,56,"mirror","wolf",1,1,"FA","wolf"
5,"sheep-and-wolf","10/31/2023","wolf",NA,"A10249252O9I20MRSOBVF","A10249252O9I20MRSOBVF_wolf","sheep",42,4031788,926.199999809265,4,"mirror","dist",0,1,"CR","dist2"
5,"sheep-and-wolf","10/31/2023","wolf",NA,"A10249252O9I20MRSOBVF","A10249252O9I20MRSOBVF_wolf","sheep",43,4038683,1158.09999990463,256,"mirror","wolf",1,2,"FA","wolf"
5,"sheep-and-wolf","10/31/2023","wolf",NA,"A10249252O9I20MRSOBVF","A10249252O9I20MRSOBVF_wolf","sheep",44,4045866,1020.39999985695,75,"chase","wolf",1,5,"Hit","wolf"
5,"sheep-and-wolf","10/31/2023","wolf",NA,"A10249252O9I20MRSOBVF","A10249252O9I20MRSOBVF_wolf","sheep",45,4052641,1044.89999985695,204,"mirror","dist",0,1,"CR","dist2"
5,"sheep-and-wolf","10/31/2023","wolf",NA,"A10249252O9I20MRSOBVF","A10249252O9I20MRSOBVF_wolf","sheep",46,4059386,1082.10000014305,259,"chase","dist",0,2,"Ms","dist5"
5,"sheep-and-wolf","10/31/2023","wolf",NA,"A10249252O9I20MRSOBVF","A10249252O9I20MRSOBVF_wolf","sheep",47,4065816,764.5,105,"chase","wolf",1,3,"Hit","wolf"
5,"sheep-and-wolf","10/31/2023","wolf",NA,"A10249252O9I20MRSOBVF","A10249252O9I20MRSOBVF_wolf","sheep",48,4072416,948.599999904633,87,"mirror","wolf",1,3,"FA","wolf"
5,"sheep-and-wolf","10/31/2023","wolf",NA,"A10249252O9I20MRSOBVF","A10249252O9I20MRSOBVF_wolf","sheep",49,4079124,1112.20000004768,36,"mirror","wolf",1,1,"FA","wolf"
5,"sheep-and-wolf","10/31/2023","wolf",NA,"A10249252O9I20MRSOBVF","A10249252O9I20MRSOBVF_wolf","sheep",50,4085641,769.599999904633,79,"chase","wolf",1,4,"Hit","wolf"
5,"sheep-and-wolf","10/31/2023","wolf",NA,"A10249252O9I20MRSOBVF","A10249252O9I20MRSOBVF_wolf","sheep",51,4093343,1858.09999990463,251,"chase","wolf",1,4,"Hit","wolf"
5,"sheep-and-wolf","10/31/2023","wolf",NA,"A10249252O9I20MRSOBVF","A10249252O9I20MRSOBVF_wolf","sheep",52,4100595,1194.60000014305,42,"mirror","sheep",0,1,"CR","sheep"
5,"sheep-and-wolf","10/31/2023","wolf",NA,"A10249252O9I20MRSOBVF","A10249252O9I20MRSOBVF_wolf","sheep",53,4110455,1881.29999995232,38,"chase","wolf",1,2,"Hit","wolf"
5,"sheep-and-wolf","10/31/2023","wolf",NA,"A10249252O9I20MRSOBVF","A10249252O9I20MRSOBVF_wolf","sheep",54,4117504,1119.90000009537,248,"chase","dist",0,1,"Ms","dist5"
5,"sheep-and-wolf","10/31/2023","wolf",NA,"A10249252O9I20MRSOBVF","A10249252O9I20MRSOBVF_wolf","sheep",55,4124703,1253.5,96,"mirror","dist",0,2,"CR","dist6"
5,"sheep-and-wolf","10/31/2023","wolf",NA,"A10249252O9I20MRSOBVF","A10249252O9I20MRSOBVF_wolf","sheep",56,4131578,1017.90000009537,217,"chase","wolf",1,4,"Hit","wolf"
5,"sheep-and-wolf","10/31/2023","wolf",NA,"A10249252O9I20MRSOBVF","A10249252O9I20MRSOBVF_wolf","sheep",57,4139477,2024.10000014305,290,"chase","wolf",1,3,"Hit","wolf"
5,"sheep-and-wolf","10/31/2023","wolf",NA,"A10249252O9I20MRSOBVF","A10249252O9I20MRSOBVF_wolf","sheep",58,4146396,1260,218,"mirror","dist",0,2,"CR","dist2"
5,"sheep-and-wolf","10/31/2023","wolf",NA,"A10249252O9I20MRSOBVF","A10249252O9I20MRSOBVF_wolf","sheep",59,4153143,1020.39999985695,26,"mirror","dist",0,3,"CR","dist3"
5,"sheep-and-wolf","10/31/2023","wolf",NA,"A10249252O9I20MRSOBVF","A10249252O9I20MRSOBVF_wolf","sheep",60,4160987,2131.90000009537,65,"mirror","dist",0,1,"CR","dist4"
5,"sheep-and-wolf","10/31/2023","wolf",NA,"A10249252O9I20MRSOBVF","A10249252O9I20MRSOBVF_wolf","sheep",61,4171321,1079.79999995232,103,"mirror","dist",0,1,"CR","dist1"
5,"sheep-and-wolf","10/31/2023","wolf",NA,"A10249252O9I20MRSOBVF","A10249252O9I20MRSOBVF_wolf","sheep",62,4178460,1405.09999990463,260,"mirror","wolf",1,1,"FA","wolf"
5,"sheep-and-wolf","10/31/2023","wolf",NA,"A10249252O9I20MRSOBVF","A10249252O9I20MRSOBVF_wolf","sheep",63,4185379,1182.20000004768,299,"mirror","wolf",1,1,"FA","wolf"
5,"sheep-and-wolf","10/31/2023","wolf",NA,"A10249252O9I20MRSOBVF","A10249252O9I20MRSOBVF_wolf","sheep",64,4192240,1097.89999985695,91,"mirror","wolf",1,1,"FA","wolf"
5,"sheep-and-wolf","10/31/2023","wolf",NA,"A10249252O9I20MRSOBVF","A10249252O9I20MRSOBVF_wolf","sheep",65,4199212,1235.59999990463,112,"mirror","sheep",0,1,"CR","sheep"
5,"sheep-and-wolf","10/31/2023","wolf",NA,"A10249252O9I20MRSOBVF","A10249252O9I20MRSOBVF_wolf","sheep",66,4206390,1383.29999995232,51,"chase","dist",0,1,"Ms","dist2"
5,"sheep-and-wolf","10/31/2023","wolf",NA,"A10249252O9I20MRSOBVF","A10249252O9I20MRSOBVF_wolf","sheep",67,4214209,1990,110,"mirror","dist",0,2,"CR","dist6"
5,"sheep-and-wolf","10/31/2023","wolf",NA,"A10249252O9I20MRSOBVF","A10249252O9I20MRSOBVF_wolf","sheep",68,4221138,1127.09999990463,252,"mirror","dist",0,2,"CR","dist3"
5,"sheep-and-wolf","10/31/2023","wolf",NA,"A10249252O9I20MRSOBVF","A10249252O9I20MRSOBVF_wolf","sheep",69,4229748,2590.79999995232,263,"chase","wolf",1,3,"Hit","wolf"
5,"sheep-and-wolf","10/31/2023","wolf",NA,"A10249252O9I20MRSOBVF","A10249252O9I20MRSOBVF_wolf","sheep",70,4236857,1267.90000009537,57,"chase","dist",0,2,"Ms","dist6"
5,"sheep-and-wolf","10/31/2023","sheep",NA,"A10DTLF1LXFY0V","A10DTLF1LXFY0V_sheep","sheep",1,220397,2883.9000005722,138,"mirror","dist",0,3,"CR","dist1"
5,"sheep-and-wolf","10/31/2023","sheep",NA,"A10DTLF1LXFY0V","A10DTLF1LXFY0V_sheep","sheep",2,228948,1959.10000038147,149,"chase","dist",0,2,"Ms","dist3"
5,"sheep-and-wolf","10/31/2023","sheep",NA,"A10DTLF1LXFY0V","A10DTLF1LXFY0V_sheep","sheep",3,239683,3551,46,"mirror","dist",0,3,"CR","dist6"
5,"sheep-and-wolf","10/31/2023","sheep",NA,"A10DTLF1LXFY0V","A10DTLF1LXFY0V_sheep","sheep",4,250532,3838.30000019073,40,"mirror","dist",0,2,"CR","dist4"
5,"sheep-and-wolf","10/31/2023","sheep",NA,"A10DTLF1LXFY0V","A10DTLF1LXFY0V_sheep","sheep",5,261103,3599.69999980927,132,"mirror","sheep",1,2,"FA","sheep"
5,"sheep-and-wolf","10/31/2023","sheep",NA,"A10DTLF1LXFY0V","A10DTLF1LXFY0V_sheep","sheep",6,271575,3358.89999961853,146,"chase","dist",0,2,"Ms","dist6"
5,"sheep-and-wolf","10/31/2023","sheep",NA,"A10DTLF1LXFY0V","A10DTLF1LXFY0V_sheep","sheep",7,281751,2375.79999923706,69,"mirror","dist",0,4,"CR","dist1"
5,"sheep-and-wolf","10/31/2023","sheep",NA,"A10DTLF1LXFY0V","A10DTLF1LXFY0V_sheep","sheep",8,293161,4473.29999923706,120,"mirror","dist",0,2,"CR","dist2"
5,"sheep-and-wolf","10/31/2023","sheep",NA,"A10DTLF1LXFY0V","A10DTLF1LXFY0V_sheep","sheep",9,303754,4037.10000038147,99,"chase","dist",0,2,"Ms","dist4"
5,"sheep-and-wolf","10/31/2023","sheep",NA,"A10DTLF1LXFY0V","A10DTLF1LXFY0V_sheep","sheep",10,312513,1727.80000019073,16,"chase","sheep",1,4,"Hit","sheep"
5,"sheep-and-wolf","10/31/2023","sheep",NA,"A10DTLF1LXFY0V","A10DTLF1LXFY0V_sheep","sheep",11,325792,1853.30000019073,117,"chase","dist",0,2,"Ms","dist1"
5,"sheep-and-wolf","10/31/2023","sheep",NA,"A10DTLF1LXFY0V","A10DTLF1LXFY0V_sheep","sheep",12,336929,4228.5999994278,28,"chase","dist",0,3,"Ms","dist2"
5,"sheep-and-wolf","10/31/2023","sheep",NA,"A10DTLF1LXFY0V","A10DTLF1LXFY0V_sheep","sheep",13,345521,1851.29999923706,139,"chase","sheep",1,3,"Hit","sheep"
5,"sheep-and-wolf","10/31/2023","sheep",NA,"A10DTLF1LXFY0V","A10DTLF1LXFY0V_sheep","sheep",14,356941,2111.80000019073,124,"chase","dist",0,3,"Ms","dist6"
5,"sheep-and-wolf","10/31/2023","sheep",NA,"A10DTLF1LXFY0V","A10DTLF1LXFY0V_sheep","sheep",15,365122,1907.4000005722,83,"mirror","sheep",1,3,"FA","sheep"
5,"sheep-and-wolf","10/31/2023","sheep",NA,"A10DTLF1LXFY0V","A10DTLF1LXFY0V_sheep","sheep",16,373494,2042.20000076294,101,"mirror","dist",0,4,"CR","dist3"
5,"sheep-and-wolf","10/31/2023","sheep",NA,"A10DTLF1LXFY0V","A10DTLF1LXFY0V_sheep","sheep",17,382818,3269.20000076294,51,"mirror","dist",0,2,"CR","dist5"
5,"sheep-and-wolf","10/31/2023","sheep",NA,"A10DTLF1LXFY0V","A10DTLF1LXFY0V_sheep","sheep",18,392018,2239.0999994278,29,"mirror","dist",0,3,"CR","dist2"
5,"sheep-and-wolf","10/31/2023","sheep",NA,"A10DTLF1LXFY0V","A10DTLF1LXFY0V_sheep","sheep",19,401402,3156.4000005722,53,"mirror","dist",0,2,"CR","dist6"
5,"sheep-and-wolf","10/31/2023","sheep",NA,"A10DTLF1LXFY0V","A10DTLF1LXFY0V_sheep","sheep",20,412513,3720.80000019073,39,"mirror","dist",0,2,"CR","dist6"
5,"sheep-and-wolf","10/31/2023","sheep",NA,"A10DTLF1LXFY0V","A10DTLF1LXFY0V_sheep","sheep",21,423432,3740.60000038147,185,"chase","dist",0,3,"Ms","dist3"
5,"sheep-and-wolf","10/31/2023","sheep",NA,"A10DTLF1LXFY0V","A10DTLF1LXFY0V_sheep","sheep",22,432027,1705.69999980927,159,"mirror","dist",0,2,"CR","dist3"
5,"sheep-and-wolf","10/31/2023","sheep",NA,"A10DTLF1LXFY0V","A10DTLF1LXFY0V_sheep","sheep",23,442498,2706.5,180,"mirror","dist",0,3,"CR","dist5"
5,"sheep-and-wolf","10/31/2023","sheep",NA,"A10DTLF1LXFY0V","A10DTLF1LXFY0V_sheep","sheep",24,457394,4422.80000019073,229,"chase","dist",0,1,"Ms","dist6"
5,"sheep-and-wolf","10/31/2023","sheep",NA,"A10DTLF1LXFY0V","A10DTLF1LXFY0V_sheep","sheep",25,467019,3226.0999994278,225,"mirror","dist",0,2,"CR","dist6"
5,"sheep-and-wolf","10/31/2023","sheep",NA,"A10DTLF1LXFY0V","A10DTLF1LXFY0V_sheep","sheep",26,478564,3997.10000038147,178,"mirror","dist",0,1,"CR","dist4"
5,"sheep-and-wolf","10/31/2023","sheep",NA,"A10DTLF1LXFY0V","A10DTLF1LXFY0V_sheep","sheep",27,492235,4591.10000038147,57,"mirror","dist",0,2,"CR","dist1"
5,"sheep-and-wolf","10/31/2023","sheep",NA,"A10DTLF1LXFY0V","A10DTLF1LXFY0V_sheep","sheep",28,503315,2850.4000005722,241,"mirror","dist",0,1,"CR","dist6"
5,"sheep-and-wolf","10/31/2023","sheep",NA,"A10DTLF1LXFY0V","A10DTLF1LXFY0V_sheep","sheep",29,512699,2045.19999980927,36,"mirror","dist",0,2,"CR","dist4"
5,"sheep-and-wolf","10/31/2023","sheep",NA,"A10DTLF1LXFY0V","A10DTLF1LXFY0V_sheep","sheep",30,522490,2984.30000019073,243,"mirror","dist",0,3,"CR","dist1"
5,"sheep-and-wolf","10/31/2023","sheep",NA,"A10DTLF1LXFY0V","A10DTLF1LXFY0V_sheep","sheep",31,534145,4497.19999980927,41,"mirror","sheep",1,2,"FA","sheep"
5,"sheep-and-wolf","10/31/2023","sheep",NA,"A10DTLF1LXFY0V","A10DTLF1LXFY0V_sheep","sheep",32,543725,2316.4000005722,5,"mirror","dist",0,2,"CR","dist2"
5,"sheep-and-wolf","10/31/2023","sheep",NA,"A10DTLF1LXFY0V","A10DTLF1LXFY0V_sheep","sheep",33,555853,4752.60000038147,147,"chase","dist",0,2,"Ms","dist3"
5,"sheep-and-wolf","10/31/2023","sheep",NA,"A10DTLF1LXFY0V","A10DTLF1LXFY0V_sheep","sheep",34,564660,2118.30000019073,118,"chase","sheep",1,3,"Hit","sheep"
5,"sheep-and-wolf","10/31/2023","sheep",NA,"A10DTLF1LXFY0V","A10DTLF1LXFY0V_sheep","sheep",35,575575,3789.4000005722,113,"mirror","sheep",1,2,"FA","sheep"
5,"sheep-and-wolf","10/31/2023","sheep",NA,"A10DTLF1LXFY0V","A10DTLF1LXFY0V_sheep","sheep",36,585045,2256.39999961853,78,"mirror","sheep",1,3,"FA","sheep"
5,"sheep-and-wolf","10/31/2023","sheep",NA,"A10DTLF1LXFY0V","A10DTLF1LXFY0V_sheep","sheep",37,596054,3327.69999980927,74,"chase","dist",0,2,"Ms","dist5"
5,"sheep-and-wolf","10/31/2023","sheep",NA,"A10DTLF1LXFY0V","A10DTLF1LXFY0V_sheep","sheep",38,606660,2403.5999994278,79,"chase","wolf",0,2,"Ms","wolf"
5,"sheep-and-wolf","10/31/2023","sheep",NA,"A10DTLF1LXFY0V","A10DTLF1LXFY0V_sheep","sheep",39,616270,2643.30000019073,277,"chase","dist",0,2,"Ms","dist5"
5,"sheep-and-wolf","10/31/2023","sheep",NA,"A10DTLF1LXFY0V","A10DTLF1LXFY0V_sheep","sheep",40,628505,2485.69999980927,269,"mirror","dist",0,2,"CR","dist5"
5,"sheep-and-wolf","10/31/2023","sheep",NA,"A10DTLF1LXFY0V","A10DTLF1LXFY0V_sheep","sheep",41,638009,1779.70000076294,154,"chase","dist",0,2,"Ms","dist5"
5,"sheep-and-wolf","10/31/2023","sheep",NA,"A10DTLF1LXFY0V","A10DTLF1LXFY0V_sheep","sheep",42,647607,2619.80000019073,70,"chase","sheep",1,4,"Hit","sheep"
5,"sheep-and-wolf","10/31/2023","sheep",NA,"A10DTLF1LXFY0V","A10DTLF1LXFY0V_sheep","sheep",43,657933,2487.0999994278,270,"chase","dist",0,3,"Ms","dist4"
5,"sheep-and-wolf","10/31/2023","sheep",NA,"A10DTLF1LXFY0V","A10DTLF1LXFY0V_sheep","sheep",44,668732,3647.70000076294,236,"chase","dist",0,2,"Ms","dist2"
5,"sheep-and-wolf","10/31/2023","sheep",NA,"A10DTLF1LXFY0V","A10DTLF1LXFY0V_sheep","sheep",45,680224,4966.80000019073,54,"chase","sheep",1,2,"Hit","sheep"
5,"sheep-and-wolf","10/31/2023","sheep",NA,"A10DTLF1LXFY0V","A10DTLF1LXFY0V_sheep","sheep",46,691088,2762.5999994278,292,"chase","sheep",1,2,"Hit","sheep"
5,"sheep-and-wolf","10/31/2023","sheep",NA,"A10DTLF1LXFY0V","A10DTLF1LXFY0V_sheep","sheep",47,702275,2635.9000005722,276,"chase","sheep",1,1,"Hit","sheep"
5,"sheep-and-wolf","10/31/2023","sheep",NA,"A10DTLF1LXFY0V","A10DTLF1LXFY0V_sheep","sheep",48,711046,2260.30000019073,61,"chase","dist",0,2,"Ms","dist6"
5,"sheep-and-wolf","10/31/2023","sheep",NA,"A10DTLF1LXFY0V","A10DTLF1LXFY0V_sheep","sheep",49,722024,3446.19999980927,245,"chase","dist",0,3,"Ms","dist1"
5,"sheep-and-wolf","10/31/2023","sheep",NA,"A10DTLF1LXFY0V","A10DTLF1LXFY0V_sheep","sheep",50,730744,2052.60000038147,201,"mirror","dist",0,1,"CR","dist1"
5,"sheep-and-wolf","10/31/2023","sheep",NA,"A10DTLF1LXFY0V","A10DTLF1LXFY0V_sheep","sheep",51,744448,1977.9000005722,42,"mirror","sheep",1,3,"FA","sheep"
5,"sheep-and-wolf","10/31/2023","sheep",NA,"A10DTLF1LXFY0V","A10DTLF1LXFY0V_sheep","sheep",52,754591,2842.30000019073,268,"chase","dist",0,3,"Ms","dist1"
5,"sheep-and-wolf","10/31/2023","sheep",NA,"A10DTLF1LXFY0V","A10DTLF1LXFY0V_sheep","sheep",53,765267,2826.69999980927,281,"chase","dist",0,3,"Ms","dist2"
5,"sheep-and-wolf","10/31/2023","sheep",NA,"A10DTLF1LXFY0V","A10DTLF1LXFY0V_sheep","sheep",54,774952,2463.10000038147,68,"mirror","sheep",1,2,"FA","sheep"
5,"sheep-and-wolf","10/31/2023","sheep",NA,"A10DTLF1LXFY0V","A10DTLF1LXFY0V_sheep","sheep",55,785217,2869.39999961853,254,"mirror","dist",0,3,"CR","dist3"
5,"sheep-and-wolf","10/31/2023","sheep",NA,"A10DTLF1LXFY0V","A10DTLF1LXFY0V_sheep","sheep",56,798712,3686.9000005722,129,"mirror","dist",0,1,"CR","dist1"
5,"sheep-and-wolf","10/31/2023","sheep",NA,"A10DTLF1LXFY0V","A10DTLF1LXFY0V_sheep","sheep",57,809112,3261.5,62,"chase","sheep",1,2,"Hit","sheep"
5,"sheep-and-wolf","10/31/2023","sheep",NA,"A10DTLF1LXFY0V","A10DTLF1LXFY0V_sheep","sheep",58,819712,3224.39999961853,192,"chase","dist",0,2,"Ms","dist1"
5,"sheep-and-wolf","10/31/2023","sheep",NA,"A10DTLF1LXFY0V","A10DTLF1LXFY0V_sheep","sheep",59,828933,2215.5,248,"chase","sheep",1,3,"Hit","sheep"
5,"sheep-and-wolf","10/31/2023","sheep",NA,"A10DTLF1LXFY0V","A10DTLF1LXFY0V_sheep","sheep",60,838356,2622.10000038147,141,"mirror","dist",0,2,"CR","dist5"
5,"sheep-and-wolf","10/31/2023","sheep",NA,"A10DTLF1LXFY0V","A10DTLF1LXFY0V_sheep","sheep",61,848876,2897,284,"mirror","dist",0,3,"CR","dist6"
5,"sheep-and-wolf","10/31/2023","sheep",NA,"A10DTLF1LXFY0V","A10DTLF1LXFY0V_sheep","sheep",62,860324,4482.29999923706,130,"mirror","dist",0,2,"CR","dist2"
5,"sheep-and-wolf","10/31/2023","sheep",NA,"A10DTLF1LXFY0V","A10DTLF1LXFY0V_sheep","sheep",63,871284,3270.60000038147,65,"chase","dist",0,2,"Ms","dist6"
5,"sheep-and-wolf","10/31/2023","sheep",NA,"A10DTLF1LXFY0V","A10DTLF1LXFY0V_sheep","sheep",64,881597,3535.5,104,"chase","sheep",1,2,"Hit","sheep"
5,"sheep-and-wolf","10/31/2023","sheep",NA,"A10DTLF1LXFY0V","A10DTLF1LXFY0V_sheep","sheep",65,892123,3041.19999980927,86,"mirror","dist",0,2,"CR","dist4"
5,"sheep-and-wolf","10/31/2023","sheep",NA,"A10DTLF1LXFY0V","A10DTLF1LXFY0V_sheep","sheep",66,902038,2956.19999980927,293,"mirror","sheep",1,3,"FA","sheep"
5,"sheep-and-wolf","10/31/2023","sheep",NA,"A10DTLF1LXFY0V","A10DTLF1LXFY0V_sheep","sheep",67,911693,2976,205,"chase","wolf",0,2,"Ms","wolf"
5,"sheep-and-wolf","10/31/2023","sheep",NA,"A10DTLF1LXFY0V","A10DTLF1LXFY0V_sheep","sheep",68,920471,2222.30000019073,50,"chase","dist",0,2,"Ms","dist4"
5,"sheep-and-wolf","10/31/2023","sheep",NA,"A10DTLF1LXFY0V","A10DTLF1LXFY0V_sheep","sheep",69,929908,2536.39999961853,148,"chase","dist",0,3,"Ms","dist6"
5,"sheep-and-wolf","10/31/2023","sheep",NA,"A10DTLF1LXFY0V","A10DTLF1LXFY0V_sheep","sheep",70,939909,2831.5,52,"chase","dist",0,3,"Ms","dist2"
5,"sheep-and-wolf","10/31/2023","wolf",NA,"A10DTLF1LXFY0V","A10DTLF1LXFY0V_wolf","sheep",1,1798913,2083.69999980927,138,"mirror","wolf",1,2,"FA","wolf"
5,"sheep-and-wolf","10/31/2023","wolf",NA,"A10DTLF1LXFY0V","A10DTLF1LXFY0V_wolf","sheep",2,1808951,3797.5999994278,149,"chase","dist",0,2,"Ms","dist2"
5,"sheep-and-wolf","10/31/2023","wolf",NA,"A10DTLF1LXFY0V","A10DTLF1LXFY0V_wolf","sheep",3,1818439,2855.30000019073,46,"mirror","dist",0,2,"CR","dist3"
5,"sheep-and-wolf","10/31/2023","wolf",NA,"A10DTLF1LXFY0V","A10DTLF1LXFY0V_wolf","sheep",4,1827977,3219.30000019073,40,"mirror","dist",0,3,"CR","dist2"
5,"sheep-and-wolf","10/31/2023","wolf",NA,"A10DTLF1LXFY0V","A10DTLF1LXFY0V_wolf","sheep",5,1838409,3504.69999980927,132,"mirror","dist",0,3,"CR","dist1"
5,"sheep-and-wolf","10/31/2023","wolf",NA,"A10DTLF1LXFY0V","A10DTLF1LXFY0V_wolf","sheep",6,1847248,2535.89999961853,146,"chase","wolf",1,2,"Hit","wolf"
5,"sheep-and-wolf","10/31/2023","wolf",NA,"A10DTLF1LXFY0V","A10DTLF1LXFY0V_wolf","sheep",7,1856973,2910.60000038147,69,"mirror","dist",0,2,"CR","dist4"
5,"sheep-and-wolf","10/31/2023","wolf",NA,"A10DTLF1LXFY0V","A10DTLF1LXFY0V_wolf","sheep",8,1868051,3968.60000038147,120,"mirror","dist",0,4,"CR","dist6"
5,"sheep-and-wolf","10/31/2023","wolf",NA,"A10DTLF1LXFY0V","A10DTLF1LXFY0V_wolf","sheep",9,1877853,2388,99,"chase","wolf",1,4,"Hit","wolf"
5,"sheep-and-wolf","10/31/2023","wolf",NA,"A10DTLF1LXFY0V","A10DTLF1LXFY0V_wolf","sheep",10,1888003,3782.79999923706,16,"chase","dist",0,3,"Ms","dist3"
5,"sheep-and-wolf","10/31/2023","wolf",NA,"A10DTLF1LXFY0V","A10DTLF1LXFY0V_wolf","sheep",11,1897659,3251,117,"chase","dist",0,3,"Ms","dist5"
5,"sheep-and-wolf","10/31/2023","wolf",NA,"A10DTLF1LXFY0V","A10DTLF1LXFY0V_wolf","sheep",12,1907181,2044.70000076294,28,"chase","dist",0,3,"Ms","dist3"
5,"sheep-and-wolf","10/31/2023","wolf",NA,"A10DTLF1LXFY0V","A10DTLF1LXFY0V_wolf","sheep",13,1917030,2623.5999994278,139,"chase","wolf",1,2,"Hit","wolf"
5,"sheep-and-wolf","10/31/2023","wolf",NA,"A10DTLF1LXFY0V","A10DTLF1LXFY0V_wolf","sheep",14,1928107,3164.69999980927,124,"chase","sheep",0,2,"Ms","sheep"
5,"sheep-and-wolf","10/31/2023","wolf",NA,"A10DTLF1LXFY0V","A10DTLF1LXFY0V_wolf","sheep",15,1938189,2917,83,"mirror","dist",0,2,"CR","dist5"
5,"sheep-and-wolf","10/31/2023","wolf",NA,"A10DTLF1LXFY0V","A10DTLF1LXFY0V_wolf","sheep",16,1948561,1743,101,"mirror","dist",0,2,"CR","dist4"
5,"sheep-and-wolf","10/31/2023","wolf",NA,"A10DTLF1LXFY0V","A10DTLF1LXFY0V_wolf","sheep",17,1959039,3019.5,51,"mirror","dist",0,3,"CR","dist3"
5,"sheep-and-wolf","10/31/2023","wolf",NA,"A10DTLF1LXFY0V","A10DTLF1LXFY0V_wolf","sheep",18,1970176,3331.80000019073,29,"mirror","dist",0,2,"CR","dist4"
5,"sheep-and-wolf","10/31/2023","wolf",NA,"A10DTLF1LXFY0V","A10DTLF1LXFY0V_wolf","sheep",19,1981457,2232.30000019073,53,"mirror","dist",0,1,"CR","dist3"
5,"sheep-and-wolf","10/31/2023","wolf",NA,"A10DTLF1LXFY0V","A10DTLF1LXFY0V_wolf","sheep",20,1991825,2939.39999961853,39,"mirror","wolf",1,2,"FA","wolf"
5,"sheep-and-wolf","10/31/2023","wolf",NA,"A10DTLF1LXFY0V","A10DTLF1LXFY0V_wolf","sheep",21,2003656,4461.19999980927,185,"chase","sheep",0,2,"Ms","sheep"
5,"sheep-and-wolf","10/31/2023","wolf",NA,"A10DTLF1LXFY0V","A10DTLF1LXFY0V_wolf","sheep",22,2013538,3149.69999980927,159,"mirror","dist",0,2,"CR","dist6"
5,"sheep-and-wolf","10/31/2023","wolf",NA,"A10DTLF1LXFY0V","A10DTLF1LXFY0V_wolf","sheep",23,2022757,2236.19999980927,180,"mirror","dist",0,2,"CR","dist3"
5,"sheep-and-wolf","10/31/2023","wolf",NA,"A10DTLF1LXFY0V","A10DTLF1LXFY0V_wolf","sheep",24,2032684,2586.19999980927,229,"chase","dist",0,3,"Ms","dist2"
5,"sheep-and-wolf","10/31/2023","wolf",NA,"A10DTLF1LXFY0V","A10DTLF1LXFY0V_wolf","sheep",25,2042094,2248.30000019073,225,"mirror","sheep",0,2,"CR","sheep"
5,"sheep-and-wolf","10/31/2023","wolf",NA,"A10DTLF1LXFY0V","A10DTLF1LXFY0V_wolf","sheep",26,2052108,3188,178,"mirror","dist",0,3,"CR","dist1"
5,"sheep-and-wolf","10/31/2023","wolf",NA,"A10DTLF1LXFY0V","A10DTLF1LXFY0V_wolf","sheep",27,2063045,3697.69999980927,57,"mirror","wolf",1,2,"FA","wolf"
5,"sheep-and-wolf","10/31/2023","wolf",NA,"A10DTLF1LXFY0V","A10DTLF1LXFY0V_wolf","sheep",28,2072321,2766.5,241,"mirror","dist",0,2,"CR","dist5"
5,"sheep-and-wolf","10/31/2023","wolf",NA,"A10DTLF1LXFY0V","A10DTLF1LXFY0V_wolf","sheep",29,2082422,2188.39999961853,36,"mirror","dist",0,2,"CR","dist4"
5,"sheep-and-wolf","10/31/2023","wolf",NA,"A10DTLF1LXFY0V","A10DTLF1LXFY0V_wolf","sheep",30,2092751,2906.69999980927,243,"mirror","dist",0,2,"CR","dist3"
5,"sheep-and-wolf","10/31/2023","wolf",NA,"A10DTLF1LXFY0V","A10DTLF1LXFY0V_wolf","sheep",31,2101432,2120,41,"mirror","dist",0,2,"CR","dist4"
5,"sheep-and-wolf","10/31/2023","wolf",NA,"A10DTLF1LXFY0V","A10DTLF1LXFY0V_wolf","sheep",32,2111881,3319.39999961853,5,"mirror","dist",0,1,"CR","dist4"
5,"sheep-and-wolf","10/31/2023","wolf",NA,"A10DTLF1LXFY0V","A10DTLF1LXFY0V_wolf","sheep",33,2122506,2929.19999980927,147,"chase","dist",0,2,"Ms","dist4"
5,"sheep-and-wolf","10/31/2023","wolf",NA,"A10DTLF1LXFY0V","A10DTLF1LXFY0V_wolf","sheep",34,2131793,2633.10000038147,118,"chase","wolf",1,3,"Hit","wolf"
5,"sheep-and-wolf","10/31/2023","wolf",NA,"A10DTLF1LXFY0V","A10DTLF1LXFY0V_wolf","sheep",35,2141898,3156.9000005722,113,"mirror","dist",0,2,"CR","dist3"
5,"sheep-and-wolf","10/31/2023","wolf",NA,"A10DTLF1LXFY0V","A10DTLF1LXFY0V_wolf","sheep",36,2151096,2181.30000019073,78,"mirror","dist",0,2,"CR","dist6"
5,"sheep-and-wolf","10/31/2023","wolf",NA,"A10DTLF1LXFY0V","A10DTLF1LXFY0V_wolf","sheep",37,2161824,3190,74,"chase","dist",0,1,"Ms","dist2"
5,"sheep-and-wolf","10/31/2023","wolf",NA,"A10DTLF1LXFY0V","A10DTLF1LXFY0V_wolf","sheep",38,2171641,2518.69999980927,79,"chase","wolf",1,2,"Hit","wolf"
5,"sheep-and-wolf","10/31/2023","wolf",NA,"A10DTLF1LXFY0V","A10DTLF1LXFY0V_wolf","sheep",39,2181256,2718.20000076294,277,"chase","wolf",1,2,"Hit","wolf"
5,"sheep-and-wolf","10/31/2023","wolf",NA,"A10DTLF1LXFY0V","A10DTLF1LXFY0V_wolf","sheep",40,2191072,2941.39999961853,269,"mirror","dist",0,3,"CR","dist4"
5,"sheep-and-wolf","10/31/2023","wolf",NA,"A10DTLF1LXFY0V","A10DTLF1LXFY0V_wolf","sheep",41,2200945,2971.4000005722,154,"chase","wolf",1,2,"Hit","wolf"
5,"sheep-and-wolf","10/31/2023","wolf",NA,"A10DTLF1LXFY0V","A10DTLF1LXFY0V_wolf","sheep",42,2211247,3563.19999980927,70,"chase","wolf",1,1,"Hit","wolf"
5,"sheep-and-wolf","10/31/2023","wolf",NA,"A10DTLF1LXFY0V","A10DTLF1LXFY0V_wolf","sheep",43,2222696,4431.10000038147,270,"chase","sheep",0,1,"Ms","sheep"
5,"sheep-and-wolf","10/31/2023","wolf",NA,"A10DTLF1LXFY0V","A10DTLF1LXFY0V_wolf","sheep",44,2235839,2064.30000019073,236,"chase","dist",0,3,"Ms","dist5"
5,"sheep-and-wolf","10/31/2023","wolf",NA,"A10DTLF1LXFY0V","A10DTLF1LXFY0V_wolf","sheep",45,2244993,2264.4000005722,54,"chase","dist",0,2,"Ms","dist4"
5,"sheep-and-wolf","10/31/2023","wolf",NA,"A10DTLF1LXFY0V","A10DTLF1LXFY0V_wolf","sheep",46,2256789,2932,292,"chase","dist",0,3,"Ms","dist2"
5,"sheep-and-wolf","10/31/2023","wolf",NA,"A10DTLF1LXFY0V","A10DTLF1LXFY0V_wolf","sheep",47,2270513,4525.10000038147,276,"chase","dist",0,1,"Ms","dist1"
5,"sheep-and-wolf","10/31/2023","wolf",NA,"A10DTLF1LXFY0V","A10DTLF1LXFY0V_wolf","sheep",48,2280496,3243.29999923706,61,"chase","dist",0,2,"Ms","dist4"
5,"sheep-and-wolf","10/31/2023","wolf",NA,"A10DTLF1LXFY0V","A10DTLF1LXFY0V_wolf","sheep",49,2290196,2744.30000019073,245,"chase","dist",0,2,"Ms","dist1"
5,"sheep-and-wolf","10/31/2023","wolf",NA,"A10DTLF1LXFY0V","A10DTLF1LXFY0V_wolf","sheep",50,2301078,4386.39999961853,201,"mirror","dist",0,2,"CR","dist3"
5,"sheep-and-wolf","10/31/2023","wolf",NA,"A10DTLF1LXFY0V","A10DTLF1LXFY0V_wolf","sheep",51,2310988,2952.60000038147,42,"mirror","dist",0,3,"CR","dist4"
5,"sheep-and-wolf","10/31/2023","wolf",NA,"A10DTLF1LXFY0V","A10DTLF1LXFY0V_wolf","sheep",52,2321059,2583.30000019073,268,"chase","wolf",1,2,"Hit","wolf"
5,"sheep-and-wolf","10/31/2023","wolf",NA,"A10DTLF1LXFY0V","A10DTLF1LXFY0V_wolf","sheep",53,2334027,5891.0999994278,281,"chase","dist",0,2,"Ms","dist5"
5,"sheep-and-wolf","10/31/2023","wolf",NA,"A10DTLF1LXFY0V","A10DTLF1LXFY0V_wolf","sheep",54,2344410,3016.30000019073,68,"mirror","dist",0,1,"CR","dist2"
5,"sheep-and-wolf","10/31/2023","wolf",NA,"A10DTLF1LXFY0V","A10DTLF1LXFY0V_wolf","sheep",55,2354377,3274.89999961853,254,"mirror","wolf",1,2,"FA","wolf"
5,"sheep-and-wolf","10/31/2023","wolf",NA,"A10DTLF1LXFY0V","A10DTLF1LXFY0V_wolf","sheep",56,2364515,3493.79999923706,129,"mirror","wolf",1,1,"FA","wolf"
5,"sheep-and-wolf","10/31/2023","wolf",NA,"A10DTLF1LXFY0V","A10DTLF1LXFY0V_wolf","sheep",57,2372860,1611.19999980927,62,"chase","dist",0,1,"Ms","dist4"
5,"sheep-and-wolf","10/31/2023","wolf",NA,"A10DTLF1LXFY0V","A10DTLF1LXFY0V_wolf","sheep",58,2381657,2386,192,"chase","wolf",1,1,"Hit","wolf"
5,"sheep-and-wolf","10/31/2023","wolf",NA,"A10DTLF1LXFY0V","A10DTLF1LXFY0V_wolf","sheep",59,2390493,2255.30000019073,248,"chase","dist",0,2,"Ms","dist4"
5,"sheep-and-wolf","10/31/2023","wolf",NA,"A10DTLF1LXFY0V","A10DTLF1LXFY0V_wolf","sheep",60,2399732,2236.5999994278,141,"mirror","dist",0,2,"CR","dist1"
5,"sheep-and-wolf","10/31/2023","wolf",NA,"A10DTLF1LXFY0V","A10DTLF1LXFY0V_wolf","sheep",61,2409247,2672.80000019073,284,"mirror","sheep",0,1,"CR","sheep"
5,"sheep-and-wolf","10/31/2023","wolf",NA,"A10DTLF1LXFY0V","A10DTLF1LXFY0V_wolf","sheep",62,2418908,2796.10000038147,130,"mirror","dist",0,2,"CR","dist6"
5,"sheep-and-wolf","10/31/2023","wolf",NA,"A10DTLF1LXFY0V","A10DTLF1LXFY0V_wolf","sheep",63,2427962,2346.9000005722,65,"chase","wolf",1,1,"Hit","wolf"
5,"sheep-and-wolf","10/31/2023","wolf",NA,"A10DTLF1LXFY0V","A10DTLF1LXFY0V_wolf","sheep",64,2437199,2309.70000076294,104,"chase","wolf",1,1,"Hit","wolf"
5,"sheep-and-wolf","10/31/2023","wolf",NA,"A10DTLF1LXFY0V","A10DTLF1LXFY0V_wolf","sheep",65,2452256,8113.69999980927,86,"mirror","dist",0,1,"CR","dist6"
5,"sheep-and-wolf","10/31/2023","wolf",NA,"A10DTLF1LXFY0V","A10DTLF1LXFY0V_wolf","sheep",66,2461647,2671.29999923706,293,"mirror","dist",0,1,"CR","dist2"
5,"sheep-and-wolf","10/31/2023","wolf",NA,"A10DTLF1LXFY0V","A10DTLF1LXFY0V_wolf","sheep",67,2471159,2901.70000076294,205,"chase","wolf",1,2,"Hit","wolf"
5,"sheep-and-wolf","10/31/2023","wolf",NA,"A10DTLF1LXFY0V","A10DTLF1LXFY0V_wolf","sheep",68,2480746,3246.89999961853,50,"chase","dist",0,2,"Ms","dist3"
5,"sheep-and-wolf","10/31/2023","wolf",NA,"A10DTLF1LXFY0V","A10DTLF1LXFY0V_wolf","sheep",69,2489684,2116.5999994278,148,"chase","dist",0,1,"Ms","dist1"
5,"sheep-and-wolf","10/31/2023","wolf",NA,"A10DTLF1LXFY0V","A10DTLF1LXFY0V_wolf","sheep",70,2500010,3660.30000019073,52,"chase","wolf",1,1,"Hit","wolf"
5,"sheep-and-wolf","10/31/2023","sheep",NA,"A11LL3J3YSXB4U","A11LL3J3YSXB4U_sheep","sheep",1,135766,1686,119,"chase","dist",0,2,"Ms","dist1"
5,"sheep-and-wolf","10/31/2023","sheep",NA,"A11LL3J3YSXB4U","A11LL3J3YSXB4U_sheep","sheep",2,144031,1920,133,"mirror","dist",0,3,"CR","dist5"
5,"sheep-and-wolf","10/31/2023","sheep",NA,"A11LL3J3YSXB4U","A11LL3J3YSXB4U_sheep","sheep",3,152040,1790,91,"chase","sheep",1,1,"Hit","sheep"
5,"sheep-and-wolf","10/31/2023","sheep",NA,"A11LL3J3YSXB4U","A11LL3J3YSXB4U_sheep","sheep",4,159449,1021.60000000009,147,"chase","dist",0,4,"Ms","dist3"
5,"sheep-and-wolf","10/31/2023","sheep",NA,"A11LL3J3YSXB4U","A11LL3J3YSXB4U_sheep","sheep",5,166318,1053.5,141,"chase","sheep",1,5,"Hit","sheep"
5,"sheep-and-wolf","10/31/2023","sheep",NA,"A11LL3J3YSXB4U","A11LL3J3YSXB4U_sheep","sheep",6,173686,1337.39999999991,87,"chase","sheep",1,5,"Hit","sheep"
5,"sheep-and-wolf","10/31/2023","sheep",NA,"A11LL3J3YSXB4U","A11LL3J3YSXB4U_sheep","sheep",7,180630,1205.80000000028,64,"chase","sheep",1,4,"Hit","sheep"
5,"sheep-and-wolf","10/31/2023","sheep",NA,"A11LL3J3YSXB4U","A11LL3J3YSXB4U_sheep","sheep",8,188625,1521.40000000037,23,"chase","sheep",1,4,"Hit","sheep"
5,"sheep-and-wolf","10/31/2023","sheep",NA,"A11LL3J3YSXB4U","A11LL3J3YSXB4U_sheep","sheep",9,196323,1468.29999999981,5,"chase","sheep",1,5,"Hit","sheep"
5,"sheep-and-wolf","10/31/2023","sheep",NA,"A11LL3J3YSXB4U","A11LL3J3YSXB4U_sheep","sheep",10,203792,1668.59999999963,96,"chase","dist",0,1,"Ms","dist1"
5,"sheep-and-wolf","10/31/2023","sheep",NA,"A11LL3J3YSXB4U","A11LL3J3YSXB4U_sheep","sheep",11,210904,854.100000000093,113,"chase","sheep",1,4,"Hit","sheep"
5,"sheep-and-wolf","10/31/2023","sheep",NA,"A11LL3J3YSXB4U","A11LL3J3YSXB4U_sheep","sheep",12,218201,1419.39999999991,54,"chase","dist",0,2,"Ms","dist1"
5,"sheep-and-wolf","10/31/2023","sheep",NA,"A11LL3J3YSXB4U","A11LL3J3YSXB4U_sheep","sheep",13,224891,870.700000000186,172,"chase","sheep",1,5,"Hit","sheep"
5,"sheep-and-wolf","10/31/2023","sheep",NA,"A11LL3J3YSXB4U","A11LL3J3YSXB4U_sheep","sheep",14,231960,1169.09999999963,199,"chase","dist",0,3,"Ms","dist2"
5,"sheep-and-wolf","10/31/2023","sheep",NA,"A11LL3J3YSXB4U","A11LL3J3YSXB4U_sheep","sheep",15,239063,953.5,18,"chase","sheep",1,5,"Hit","sheep"
5,"sheep-and-wolf","10/31/2023","sheep",NA,"A11LL3J3YSXB4U","A11LL3J3YSXB4U_sheep","sheep",16,246205,1387.60000000009,77,"chase","sheep",1,3,"Hit","sheep"
5,"sheep-and-wolf","10/31/2023","sheep",NA,"A11LL3J3YSXB4U","A11LL3J3YSXB4U_sheep","sheep",17,254243,2469.29999999981,161,"chase","dist",0,1,"Ms","dist5"
5,"sheep-and-wolf","10/31/2023","sheep",NA,"A11LL3J3YSXB4U","A11LL3J3YSXB4U_sheep","sheep",18,261845,1752.5,47,"chase","sheep",1,5,"Hit","sheep"
5,"sheep-and-wolf","10/31/2023","sheep",NA,"A11LL3J3YSXB4U","A11LL3J3YSXB4U_sheep","sheep",19,268989,1055.89999999991,159,"mirror","dist",0,3,"CR","dist3"
5,"sheep-and-wolf","10/31/2023","sheep",NA,"A11LL3J3YSXB4U","A11LL3J3YSXB4U_sheep","sheep",20,275690,934.899999999907,186,"mirror","dist",0,3,"CR","dist1"
5,"sheep-and-wolf","10/31/2023","sheep",NA,"A11LL3J3YSXB4U","A11LL3J3YSXB4U_sheep","sheep",21,283538,1254.30000000028,182,"chase","sheep",1,3,"Hit","sheep"
5,"sheep-and-wolf","10/31/2023","sheep",NA,"A11LL3J3YSXB4U","A11LL3J3YSXB4U_sheep","sheep",22,290455,1151.39999999991,4,"chase","sheep",1,5,"Hit","sheep"
5,"sheep-and-wolf","10/31/2023","sheep",NA,"A11LL3J3YSXB4U","A11LL3J3YSXB4U_sheep","sheep",23,297309,1137.79999999981,60,"mirror","dist",0,1,"CR","dist2"
5,"sheep-and-wolf","10/31/2023","sheep",NA,"A11LL3J3YSXB4U","A11LL3J3YSXB4U_sheep","sheep",24,304196,1087,45,"mirror","dist",0,3,"CR","dist6"
5,"sheep-and-wolf","10/31/2023","sheep",NA,"A11LL3J3YSXB4U","A11LL3J3YSXB4U_sheep","sheep",25,311429,1219.70000000019,290,"chase","sheep",1,3,"Hit","sheep"
5,"sheep-and-wolf","10/31/2023","sheep",NA,"A11LL3J3YSXB4U","A11LL3J3YSXB4U_sheep","sheep",26,318817,1269.79999999981,74,"mirror","dist",0,2,"CR","dist4"
5,"sheep-and-wolf","10/31/2023","sheep",NA,"A11LL3J3YSXB4U","A11LL3J3YSXB4U_sheep","sheep",27,326268,1586.30000000028,297,"mirror","dist",0,2,"CR","dist4"
5,"sheep-and-wolf","10/31/2023","sheep",NA,"A11LL3J3YSXB4U","A11LL3J3YSXB4U_sheep","sheep",28,333076,1070.79999999981,162,"chase","sheep",1,5,"Hit","sheep"
5,"sheep-and-wolf","10/31/2023","sheep",NA,"A11LL3J3YSXB4U","A11LL3J3YSXB4U_sheep","sheep",29,340878,2018.60000000009,288,"mirror","sheep",1,1,"FA","sheep"
5,"sheep-and-wolf","10/31/2023","sheep",NA,"A11LL3J3YSXB4U","A11LL3J3YSXB4U_sheep","sheep",30,347789,1222.10000000009,156,"chase","dist",0,1,"Ms","dist4"
5,"sheep-and-wolf","10/31/2023","sheep",NA,"A11LL3J3YSXB4U","A11LL3J3YSXB4U_sheep","sheep",31,354500,888,270,"mirror","dist",0,2,"CR","dist2"
5,"sheep-and-wolf","10/31/2023","sheep",NA,"A11LL3J3YSXB4U","A11LL3J3YSXB4U_sheep","sheep",32,362510,1518.80000000028,283,"mirror","dist",0,3,"CR","dist4"
5,"sheep-and-wolf","10/31/2023","sheep",NA,"A11LL3J3YSXB4U","A11LL3J3YSXB4U_sheep","sheep",33,369916,1736.89999999991,13,"mirror","dist",0,1,"CR","dist4"
5,"sheep-and-wolf","10/31/2023","sheep",NA,"A11LL3J3YSXB4U","A11LL3J3YSXB4U_sheep","sheep",34,376754,1121.60000000009,286,"mirror","sheep",1,2,"FA","sheep"
5,"sheep-and-wolf","10/31/2023","sheep",NA,"A11LL3J3YSXB4U","A11LL3J3YSXB4U_sheep","sheep",35,383487,954,34,"chase","dist",0,3,"Ms","dist4"
5,"sheep-and-wolf","10/31/2023","sheep",NA,"A11LL3J3YSXB4U","A11LL3J3YSXB4U_sheep","sheep",36,390408,1019.89999999991,277,"mirror","dist",0,4,"CR","dist1"
5,"sheep-and-wolf","10/31/2023","sheep",NA,"A11LL3J3YSXB4U","A11LL3J3YSXB4U_sheep","sheep",37,398134,1601.30000000028,33,"mirror","dist",0,2,"CR","dist1"
5,"sheep-and-wolf","10/31/2023","sheep",NA,"A11LL3J3YSXB4U","A11LL3J3YSXB4U_sheep","sheep",38,405254,1270.30000000028,188,"mirror","dist",0,2,"CR","dist2"
5,"sheep-and-wolf","10/31/2023","sheep",NA,"A11LL3J3YSXB4U","A11LL3J3YSXB4U_sheep","sheep",39,412651,1736.39999999991,14,"mirror","wolf",0,1,"CR","wolf"
5,"sheep-and-wolf","10/31/2023","sheep",NA,"A11LL3J3YSXB4U","A11LL3J3YSXB4U_sheep","sheep",40,420440,907.100000000093,88,"mirror","dist",0,3,"CR","dist1"
5,"sheep-and-wolf","10/31/2023","sheep",NA,"A11LL3J3YSXB4U","A11LL3J3YSXB4U_sheep","sheep",41,427242,1020.70000000019,53,"chase","dist",0,5,"Ms","dist6"
5,"sheep-and-wolf","10/31/2023","sheep",NA,"A11LL3J3YSXB4U","A11LL3J3YSXB4U_sheep","sheep",42,434474,1536.30000000028,16,"mirror","dist",0,1,"CR","dist4"
5,"sheep-and-wolf","10/31/2023","sheep",NA,"A11LL3J3YSXB4U","A11LL3J3YSXB4U_sheep","sheep",43,442027,1254.5,52,"mirror","dist",0,2,"CR","dist4"
5,"sheep-and-wolf","10/31/2023","sheep",NA,"A11LL3J3YSXB4U","A11LL3J3YSXB4U_sheep","sheep",44,449267,1170.70000000019,59,"chase","sheep",1,4,"Hit","sheep"
5,"sheep-and-wolf","10/31/2023","sheep",NA,"A11LL3J3YSXB4U","A11LL3J3YSXB4U_sheep","sheep",45,456114,1053.69999999972,152,"chase","dist",0,3,"Ms","dist4"
5,"sheep-and-wolf","10/31/2023","sheep",NA,"A11LL3J3YSXB4U","A11LL3J3YSXB4U_sheep","sheep",46,462673,904.899999999907,230,"chase","sheep",1,5,"Hit","sheep"
5,"sheep-and-wolf","10/31/2023","sheep",NA,"A11LL3J3YSXB4U","A11LL3J3YSXB4U_sheep","sheep",47,471461,2236.19999999972,118,"chase","sheep",1,4,"Hit","sheep"
5,"sheep-and-wolf","10/31/2023","sheep",NA,"A11LL3J3YSXB4U","A11LL3J3YSXB4U_sheep","sheep",48,478227,1019.5,123,"chase","dist",0,5,"Ms","dist1"
5,"sheep-and-wolf","10/31/2023","sheep",NA,"A11LL3J3YSXB4U","A11LL3J3YSXB4U_sheep","sheep",49,485191,1154.09999999963,155,"mirror","dist",0,2,"CR","dist6"
5,"sheep-and-wolf","10/31/2023","sheep",NA,"A11LL3J3YSXB4U","A11LL3J3YSXB4U_sheep","sheep",50,493088,1218.69999999972,7,"mirror","dist",0,3,"CR","dist6"
5,"sheep-and-wolf","10/31/2023","sheep",NA,"A11LL3J3YSXB4U","A11LL3J3YSXB4U_sheep","sheep",51,500298,1167.5,187,"mirror","dist",0,2,"CR","dist2"
5,"sheep-and-wolf","10/31/2023","sheep",NA,"A11LL3J3YSXB4U","A11LL3J3YSXB4U_sheep","sheep",52,507751,1821.30000000028,108,"mirror","sheep",1,1,"FA","sheep"
5,"sheep-and-wolf","10/31/2023","sheep",NA,"A11LL3J3YSXB4U","A11LL3J3YSXB4U_sheep","sheep",53,514678,852.599999999627,298,"chase","dist",0,3,"Ms","dist3"
5,"sheep-and-wolf","10/31/2023","sheep",NA,"A11LL3J3YSXB4U","A11LL3J3YSXB4U_sheep","sheep",54,522224,1170.5,173,"mirror","dist",0,3,"CR","dist6"
5,"sheep-and-wolf","10/31/2023","sheep",NA,"A11LL3J3YSXB4U","A11LL3J3YSXB4U_sheep","sheep",55,529275,888.300000000279,184,"mirror","dist",0,1,"CR","dist6"
5,"sheep-and-wolf","10/31/2023","sheep",NA,"A11LL3J3YSXB4U","A11LL3J3YSXB4U_sheep","sheep",56,536187,1186.60000000009,282,"chase","dist",0,5,"Ms","dist5"
5,"sheep-and-wolf","10/31/2023","sheep",NA,"A11LL3J3YSXB4U","A11LL3J3YSXB4U_sheep","sheep",57,542691,870.900000000373,150,"mirror","dist",0,5,"CR","dist2"
5,"sheep-and-wolf","10/31/2023","sheep",NA,"A11LL3J3YSXB4U","A11LL3J3YSXB4U_sheep","sheep",58,549923,1420.79999999981,72,"mirror","dist",0,1,"CR","dist2"
5,"sheep-and-wolf","10/31/2023","sheep",NA,"A11LL3J3YSXB4U","A11LL3J3YSXB4U_sheep","sheep",59,556423,753.899999999907,170,"chase","sheep",1,5,"Hit","sheep"
5,"sheep-and-wolf","10/31/2023","sheep",NA,"A11LL3J3YSXB4U","A11LL3J3YSXB4U_sheep","sheep",60,563873,1753.10000000009,29,"chase","dist",0,5,"Ms","dist3"
5,"sheep-and-wolf","10/31/2023","sheep",NA,"A11LL3J3YSXB4U","A11LL3J3YSXB4U_sheep","sheep",61,570952,1370.29999999981,240,"mirror","dist",0,1,"CR","dist4"
5,"sheep-and-wolf","10/31/2023","sheep",NA,"A11LL3J3YSXB4U","A11LL3J3YSXB4U_sheep","sheep",62,577576,971.5,151,"chase","sheep",1,5,"Hit","sheep"
5,"sheep-and-wolf","10/31/2023","sheep",NA,"A11LL3J3YSXB4U","A11LL3J3YSXB4U_sheep","sheep",63,584825,1452.5,163,"mirror","dist",0,1,"CR","dist5"
5,"sheep-and-wolf","10/31/2023","sheep",NA,"A11LL3J3YSXB4U","A11LL3J3YSXB4U_sheep","sheep",64,592048,1389.79999999981,231,"mirror","dist",0,1,"CR","dist1"
5,"sheep-and-wolf","10/31/2023","sheep",NA,"A11LL3J3YSXB4U","A11LL3J3YSXB4U_sheep","sheep",65,599348,1537.20000000019,110,"chase","dist",0,1,"Ms","dist4"
5,"sheep-and-wolf","10/31/2023","sheep",NA,"A11LL3J3YSXB4U","A11LL3J3YSXB4U_sheep","sheep",66,606663,1535.40000000037,287,"mirror","dist",0,1,"CR","dist1"
5,"sheep-and-wolf","10/31/2023","sheep",NA,"A11LL3J3YSXB4U","A11LL3J3YSXB4U_sheep","sheep",67,614144,2171,212,"mirror","sheep",1,1,"FA","sheep"
5,"sheep-and-wolf","10/31/2023","sheep",NA,"A11LL3J3YSXB4U","A11LL3J3YSXB4U_sheep","sheep",68,621080,1286.70000000019,139,"mirror","dist",0,1,"CR","dist6"
5,"sheep-and-wolf","10/31/2023","sheep",NA,"A11LL3J3YSXB4U","A11LL3J3YSXB4U_sheep","sheep",69,627926,1238.30000000028,258,"mirror","dist",0,3,"CR","dist2"
5,"sheep-and-wolf","10/31/2023","sheep",NA,"A11LL3J3YSXB4U","A11LL3J3YSXB4U_sheep","sheep",70,634892,1152.89999999991,295,"mirror","dist",0,3,"CR","dist5"
5,"sheep-and-wolf","10/31/2023","wolf",NA,"A11LL3J3YSXB4U","A11LL3J3YSXB4U_wolf","sheep",1,1209343,938.799999999814,119,"chase","wolf",1,5,"Hit","wolf"
5,"sheep-and-wolf","10/31/2023","wolf",NA,"A11LL3J3YSXB4U","A11LL3J3YSXB4U_wolf","sheep",2,1216544,1452.89999999944,133,"mirror","dist",0,2,"CR","dist4"
5,"sheep-and-wolf","10/31/2023","wolf",NA,"A11LL3J3YSXB4U","A11LL3J3YSXB4U_wolf","sheep",3,1223145,1037.39999999944,91,"chase","wolf",1,5,"Hit","wolf"
5,"sheep-and-wolf","10/31/2023","wolf",NA,"A11LL3J3YSXB4U","A11LL3J3YSXB4U_wolf","sheep",4,1229648,704.599999999627,147,"chase","wolf",1,5,"Hit","wolf"
5,"sheep-and-wolf","10/31/2023","wolf",NA,"A11LL3J3YSXB4U","A11LL3J3YSXB4U_wolf","sheep",5,1236450,1052.29999999981,141,"chase","dist",0,3,"Ms","dist6"
5,"sheep-and-wolf","10/31/2023","wolf",NA,"A11LL3J3YSXB4U","A11LL3J3YSXB4U_wolf","sheep",6,1243028,837.200000000186,87,"chase","wolf",1,5,"Hit","wolf"
5,"sheep-and-wolf","10/31/2023","wolf",NA,"A11LL3J3YSXB4U","A11LL3J3YSXB4U_wolf","sheep",7,1249802,951.600000000559,64,"chase","wolf",1,5,"Hit","wolf"
5,"sheep-and-wolf","10/31/2023","wolf",NA,"A11LL3J3YSXB4U","A11LL3J3YSXB4U_wolf","sheep",8,1256752,1187,23,"chase","wolf",1,5,"Hit","wolf"
5,"sheep-and-wolf","10/31/2023","wolf",NA,"A11LL3J3YSXB4U","A11LL3J3YSXB4U_wolf","sheep",9,1263245,802.5,5,"chase","wolf",1,5,"Hit","wolf"
5,"sheep-and-wolf","10/31/2023","wolf",NA,"A11LL3J3YSXB4U","A11LL3J3YSXB4U_wolf","sheep",10,1270328,1255.39999999944,96,"chase","sheep",0,3,"Ms","sheep"
5,"sheep-and-wolf","10/31/2023","wolf",NA,"A11LL3J3YSXB4U","A11LL3J3YSXB4U_wolf","sheep",11,1277515,1437.10000000056,113,"chase","wolf",1,3,"Hit","wolf"
5,"sheep-and-wolf","10/31/2023","wolf",NA,"A11LL3J3YSXB4U","A11LL3J3YSXB4U_wolf","sheep",12,1284307,1069,54,"chase","wolf",1,5,"Hit","wolf"
5,"sheep-and-wolf","10/31/2023","wolf",NA,"A11LL3J3YSXB4U","A11LL3J3YSXB4U_wolf","sheep",13,1291600,1618,172,"chase","wolf",1,5,"Hit","wolf"
5,"sheep-and-wolf","10/31/2023","wolf",NA,"A11LL3J3YSXB4U","A11LL3J3YSXB4U_wolf","sheep",14,1298529,1222.40000000037,199,"chase","wolf",1,5,"Hit","wolf"
5,"sheep-and-wolf","10/31/2023","wolf",NA,"A11LL3J3YSXB4U","A11LL3J3YSXB4U_wolf","sheep",15,1306364,2034.09999999963,18,"chase","wolf",1,5,"Hit","wolf"
5,"sheep-and-wolf","10/31/2023","wolf",NA,"A11LL3J3YSXB4U","A11LL3J3YSXB4U_wolf","sheep",16,1314035,1827.79999999981,77,"chase","dist",0,5,"Ms","dist1"
5,"sheep-and-wolf","10/31/2023","wolf",NA,"A11LL3J3YSXB4U","A11LL3J3YSXB4U_wolf","sheep",17,1320918,1137.40000000037,161,"chase","wolf",1,5,"Hit","wolf"
5,"sheep-and-wolf","10/31/2023","wolf",NA,"A11LL3J3YSXB4U","A11LL3J3YSXB4U_wolf","sheep",18,1327395,802.200000000186,47,"chase","wolf",1,5,"Hit","wolf"
5,"sheep-and-wolf","10/31/2023","wolf",NA,"A11LL3J3YSXB4U","A11LL3J3YSXB4U_wolf","sheep",19,1334072,1037,159,"mirror","dist",0,1,"CR","dist3"
5,"sheep-and-wolf","10/31/2023","wolf",NA,"A11LL3J3YSXB4U","A11LL3J3YSXB4U_wolf","sheep",20,1341555,788.400000000373,186,"mirror","dist",0,4,"CR","dist3"
5,"sheep-and-wolf","10/31/2023","wolf",NA,"A11LL3J3YSXB4U","A11LL3J3YSXB4U_wolf","sheep",21,1348079,771.299999999814,182,"chase","wolf",1,5,"Hit","wolf"
5,"sheep-and-wolf","10/31/2023","wolf",NA,"A11LL3J3YSXB4U","A11LL3J3YSXB4U_wolf","sheep",22,1354612,804.5,4,"chase","wolf",1,5,"Hit","wolf"
5,"sheep-and-wolf","10/31/2023","wolf",NA,"A11LL3J3YSXB4U","A11LL3J3YSXB4U_wolf","sheep",23,1361559,1318.29999999981,60,"mirror","sheep",0,1,"CR","sheep"
5,"sheep-and-wolf","10/31/2023","wolf",NA,"A11LL3J3YSXB4U","A11LL3J3YSXB4U_wolf","sheep",24,1368660,1435,45,"mirror","dist",0,3,"CR","dist3"
5,"sheep-and-wolf","10/31/2023","wolf",NA,"A11LL3J3YSXB4U","A11LL3J3YSXB4U_wolf","sheep",25,1376238,1918.39999999944,290,"chase","wolf",1,1,"Hit","wolf"
5,"sheep-and-wolf","10/31/2023","wolf",NA,"A11LL3J3YSXB4U","A11LL3J3YSXB4U_wolf","sheep",26,1383108,1053.29999999981,74,"mirror","dist",0,2,"CR","dist6"
5,"sheep-and-wolf","10/31/2023","wolf",NA,"A11LL3J3YSXB4U","A11LL3J3YSXB4U_wolf","sheep",27,1390375,1589.5,297,"mirror","dist",0,1,"CR","dist4"
5,"sheep-and-wolf","10/31/2023","wolf",NA,"A11LL3J3YSXB4U","A11LL3J3YSXB4U_wolf","sheep",28,1397824,1652,162,"chase","dist",0,2,"Ms","dist6"
5,"sheep-and-wolf","10/31/2023","wolf",NA,"A11LL3J3YSXB4U","A11LL3J3YSXB4U_wolf","sheep",29,1405068,1588.40000000037,288,"mirror","sheep",0,1,"CR","sheep"
5,"sheep-and-wolf","10/31/2023","wolf",NA,"A11LL3J3YSXB4U","A11LL3J3YSXB4U_wolf","sheep",30,1411662,951.5,156,"chase","dist",0,1,"Ms","dist4"
5,"sheep-and-wolf","10/31/2023","wolf",NA,"A11LL3J3YSXB4U","A11LL3J3YSXB4U_wolf","sheep",31,1418753,1387.5,270,"mirror","dist",0,2,"CR","dist1"
5,"sheep-and-wolf","10/31/2023","wolf",NA,"A11LL3J3YSXB4U","A11LL3J3YSXB4U_wolf","sheep",32,1425368,1004.89999999944,283,"mirror","dist",0,1,"CR","dist6"
5,"sheep-and-wolf","10/31/2023","wolf",NA,"A11LL3J3YSXB4U","A11LL3J3YSXB4U_wolf","sheep",33,1431913,854.399999999441,13,"mirror","dist",0,1,"CR","dist2"
5,"sheep-and-wolf","10/31/2023","wolf",NA,"A11LL3J3YSXB4U","A11LL3J3YSXB4U_wolf","sheep",34,1439294,1436.59999999963,286,"mirror","dist",0,5,"CR","dist4"
5,"sheep-and-wolf","10/31/2023","wolf",NA,"A11LL3J3YSXB4U","A11LL3J3YSXB4U_wolf","sheep",35,1446421,1403.59999999963,34,"chase","dist",0,5,"Ms","dist3"
5,"sheep-and-wolf","10/31/2023","wolf",NA,"A11LL3J3YSXB4U","A11LL3J3YSXB4U_wolf","sheep",36,1453155,1089.79999999981,277,"mirror","dist",0,3,"CR","dist6"
5,"sheep-and-wolf","10/31/2023","wolf",NA,"A11LL3J3YSXB4U","A11LL3J3YSXB4U_wolf","sheep",37,1460361,1570.30000000075,33,"mirror","dist",0,1,"CR","dist4"
5,"sheep-and-wolf","10/31/2023","wolf",NA,"A11LL3J3YSXB4U","A11LL3J3YSXB4U_wolf","sheep",38,1467836,1850.79999999981,188,"mirror","wolf",1,1,"FA","wolf"
5,"sheep-and-wolf","10/31/2023","wolf",NA,"A11LL3J3YSXB4U","A11LL3J3YSXB4U_wolf","sheep",39,1474495,922.800000000745,14,"mirror","dist",0,1,"CR","dist5"
5,"sheep-and-wolf","10/31/2023","wolf",NA,"A11LL3J3YSXB4U","A11LL3J3YSXB4U_wolf","sheep",40,1481205,1187.59999999963,88,"mirror","dist",0,1,"CR","dist6"
5,"sheep-and-wolf","10/31/2023","wolf",NA,"A11LL3J3YSXB4U","A11LL3J3YSXB4U_wolf","sheep",41,1487915,1070.79999999981,53,"chase","dist",0,5,"Ms","dist4"
5,"sheep-and-wolf","10/31/2023","wolf",NA,"A11LL3J3YSXB4U","A11LL3J3YSXB4U_wolf","sheep",42,1495140,1621.90000000037,16,"mirror","dist",0,1,"CR","dist4"
5,"sheep-and-wolf","10/31/2023","wolf",NA,"A11LL3J3YSXB4U","A11LL3J3YSXB4U_wolf","sheep",43,1502572,1823.79999999981,52,"mirror","dist",0,1,"CR","dist5"
5,"sheep-and-wolf","10/31/2023","wolf",NA,"A11LL3J3YSXB4U","A11LL3J3YSXB4U_wolf","sheep",44,1511467,3272.20000000019,59,"chase","dist",0,3,"Ms","dist3"
5,"sheep-and-wolf","10/31/2023","wolf",NA,"A11LL3J3YSXB4U","A11LL3J3YSXB4U_wolf","sheep",45,1518400,1221.40000000037,152,"chase","sheep",0,3,"Ms","sheep"
5,"sheep-and-wolf","10/31/2023","wolf",NA,"A11LL3J3YSXB4U","A11LL3J3YSXB4U_wolf","sheep",46,1525796,1551.5,230,"chase","wolf",1,5,"Hit","wolf"
5,"sheep-and-wolf","10/31/2023","wolf",NA,"A11LL3J3YSXB4U","A11LL3J3YSXB4U_wolf","sheep",47,1533204,1737.60000000056,118,"chase","sheep",0,1,"Ms","sheep"
5,"sheep-and-wolf","10/31/2023","wolf",NA,"A11LL3J3YSXB4U","A11LL3J3YSXB4U_wolf","sheep",48,1540533,1487.10000000056,123,"chase","wolf",1,5,"Hit","wolf"
5,"sheep-and-wolf","10/31/2023","wolf",NA,"A11LL3J3YSXB4U","A11LL3J3YSXB4U_wolf","sheep",49,1548056,1920.39999999944,155,"mirror","dist",0,1,"CR","dist6"
5,"sheep-and-wolf","10/31/2023","wolf",NA,"A11LL3J3YSXB4U","A11LL3J3YSXB4U_wolf","sheep",50,1555625,1788.70000000019,7,"mirror","dist",0,5,"CR","dist3"
5,"sheep-and-wolf","10/31/2023","wolf",NA,"A11LL3J3YSXB4U","A11LL3J3YSXB4U_wolf","sheep",51,1562403,987.899999999441,187,"mirror","dist",0,3,"CR","dist3"
5,"sheep-and-wolf","10/31/2023","wolf",NA,"A11LL3J3YSXB4U","A11LL3J3YSXB4U_wolf","sheep",52,1571333,3484.09999999963,108,"mirror","wolf",1,1,"FA","wolf"
5,"sheep-and-wolf","10/31/2023","wolf",NA,"A11LL3J3YSXB4U","A11LL3J3YSXB4U_wolf","sheep",53,1578234,1138.79999999981,298,"chase","wolf",1,5,"Hit","wolf"
5,"sheep-and-wolf","10/31/2023","wolf",NA,"A11LL3J3YSXB4U","A11LL3J3YSXB4U_wolf","sheep",54,1585649,1668.90000000037,173,"mirror","dist",0,5,"CR","dist1"
5,"sheep-and-wolf","10/31/2023","wolf",NA,"A11LL3J3YSXB4U","A11LL3J3YSXB4U_wolf","sheep",55,1592879,1654.79999999981,184,"mirror","dist",0,1,"CR","dist1"
5,"sheep-and-wolf","10/31/2023","wolf",NA,"A11LL3J3YSXB4U","A11LL3J3YSXB4U_wolf","sheep",56,1600095,1504.5,282,"chase","wolf",1,5,"Hit","wolf"
5,"sheep-and-wolf","10/31/2023","wolf",NA,"A11LL3J3YSXB4U","A11LL3J3YSXB4U_wolf","sheep",57,1607290,1769.29999999981,150,"mirror","dist",0,1,"CR","dist3"
5,"sheep-and-wolf","10/31/2023","wolf",NA,"A11LL3J3YSXB4U","A11LL3J3YSXB4U_wolf","sheep",58,1614679,1821,72,"mirror","dist",0,3,"CR","dist1"
5,"sheep-and-wolf","10/31/2023","wolf",NA,"A11LL3J3YSXB4U","A11LL3J3YSXB4U_wolf","sheep",59,1621620,1251.59999999963,170,"chase","wolf",1,5,"Hit","wolf"
5,"sheep-and-wolf","10/31/2023","wolf",NA,"A11LL3J3YSXB4U","A11LL3J3YSXB4U_wolf","sheep",60,1628056,687.700000000186,29,"chase","wolf",1,5,"Hit","wolf"
5,"sheep-and-wolf","10/31/2023","wolf",NA,"A11LL3J3YSXB4U","A11LL3J3YSXB4U_wolf","sheep",61,1634738,953.200000000186,240,"mirror","dist",0,3,"CR","dist4"
5,"sheep-and-wolf","10/31/2023","wolf",NA,"A11LL3J3YSXB4U","A11LL3J3YSXB4U_wolf","sheep",62,1641503,1005.79999999981,151,"chase","wolf",1,5,"Hit","wolf"
5,"sheep-and-wolf","10/31/2023","wolf",NA,"A11LL3J3YSXB4U","A11LL3J3YSXB4U_wolf","sheep",63,1648421,1222.10000000056,163,"mirror","dist",0,1,"CR","dist2"
5,"sheep-and-wolf","10/31/2023","wolf",NA,"A11LL3J3YSXB4U","A11LL3J3YSXB4U_wolf","sheep",64,1655431,1388.70000000019,231,"mirror","dist",0,3,"CR","dist4"
5,"sheep-and-wolf","10/31/2023","wolf",NA,"A11LL3J3YSXB4U","A11LL3J3YSXB4U_wolf","sheep",65,1663511,2269,110,"chase","dist",0,3,"Ms","dist1"
5,"sheep-and-wolf","10/31/2023","wolf",NA,"A11LL3J3YSXB4U","A11LL3J3YSXB4U_wolf","sheep",66,1670604,1503.60000000056,287,"mirror","dist",0,3,"CR","dist1"
5,"sheep-and-wolf","10/31/2023","wolf",NA,"A11LL3J3YSXB4U","A11LL3J3YSXB4U_wolf","sheep",67,1678087,1789.79999999981,212,"mirror","dist",0,1,"CR","dist6"
5,"sheep-and-wolf","10/31/2023","wolf",NA,"A11LL3J3YSXB4U","A11LL3J3YSXB4U_wolf","sheep",68,1685207,1504.19999999925,139,"mirror","dist",0,1,"CR","dist2"
5,"sheep-and-wolf","10/31/2023","wolf",NA,"A11LL3J3YSXB4U","A11LL3J3YSXB4U_wolf","sheep",69,1692010,921,258,"mirror","wolf",1,3,"FA","wolf"
5,"sheep-and-wolf","10/31/2023","wolf",NA,"A11LL3J3YSXB4U","A11LL3J3YSXB4U_wolf","sheep",70,1699277,1654.20000000019,295,"mirror","dist",0,1,"CR","dist5"
5,"sheep-and-wolf","10/31/2023","sheep",NA,"A128YNJ54F176I","A128YNJ54F176I_sheep","sheep",1,176412,1912.70000004768,196,"mirror","dist",0,4,"CR","dist1"
5,"sheep-and-wolf","10/31/2023","sheep",NA,"A128YNJ54F176I","A128YNJ54F176I_sheep","sheep",2,185196,3096.90000009537,189,"chase","dist",0,4,"Ms","dist1"
5,"sheep-and-wolf","10/31/2023","sheep",NA,"A128YNJ54F176I","A128YNJ54F176I_sheep","sheep",3,195147,2288.5,193,"chase","sheep",1,5,"Hit","sheep"
5,"sheep-and-wolf","10/31/2023","sheep",NA,"A128YNJ54F176I","A128YNJ54F176I_sheep","sheep",4,208549,1541.20000004768,90,"chase","dist",0,5,"Ms","dist5"
5,"sheep-and-wolf","10/31/2023","sheep",NA,"A128YNJ54F176I","A128YNJ54F176I_sheep","sheep",5,215698,1310.90000009537,61,"chase","dist",0,5,"Ms","dist6"
5,"sheep-and-wolf","10/31/2023","sheep",NA,"A128YNJ54F176I","A128YNJ54F176I_sheep","sheep",6,224298,2904.79999995232,79,"chase","dist",0,4,"Ms","dist6"
5,"sheep-and-wolf","10/31/2023","sheep",NA,"A128YNJ54F176I","A128YNJ54F176I_sheep","sheep",7,233843,3074.69999980927,213,"chase","dist",0,5,"Ms","dist4"
5,"sheep-and-wolf","10/31/2023","sheep",NA,"A128YNJ54F176I","A128YNJ54F176I_sheep","sheep",8,240969,1293,282,"chase","wolf",0,5,"Ms","wolf"
5,"sheep-and-wolf","10/31/2023","sheep",NA,"A128YNJ54F176I","A128YNJ54F176I_sheep","sheep",9,249402,2323.29999995232,114,"chase","sheep",1,5,"Hit","sheep"
5,"sheep-and-wolf","10/31/2023","sheep",NA,"A128YNJ54F176I","A128YNJ54F176I_sheep","sheep",10,256962,1368.70000004768,210,"chase","sheep",1,5,"Hit","sheep"
5,"sheep-and-wolf","10/31/2023","sheep",NA,"A128YNJ54F176I","A128YNJ54F176I_sheep","sheep",11,264093,1519.90000009537,85,"chase","wolf",0,5,"Ms","wolf"
5,"sheep-and-wolf","10/31/2023","sheep",NA,"A128YNJ54F176I","A128YNJ54F176I_sheep","sheep",12,272569,2850.70000004768,236,"mirror","dist",0,5,"CR","dist3"
5,"sheep-and-wolf","10/31/2023","sheep",NA,"A128YNJ54F176I","A128YNJ54F176I_sheep","sheep",13,281097,2368.59999990463,84,"chase","sheep",1,4,"Hit","sheep"
5,"sheep-and-wolf","10/31/2023","sheep",NA,"A128YNJ54F176I","A128YNJ54F176I_sheep","sheep",14,289636,2462.89999985695,46,"chase","sheep",1,4,"Hit","sheep"
5,"sheep-and-wolf","10/31/2023","sheep",NA,"A128YNJ54F176I","A128YNJ54F176I_sheep","sheep",15,296598,1455.59999990463,124,"mirror","sheep",1,4,"FA","sheep"
5,"sheep-and-wolf","10/31/2023","sheep",NA,"A128YNJ54F176I","A128YNJ54F176I_sheep","sheep",16,303599,1310.29999995232,53,"chase","sheep",1,4,"Hit","sheep"
5,"sheep-and-wolf","10/31/2023","sheep",NA,"A128YNJ54F176I","A128YNJ54F176I_sheep","sheep",17,314403,2968.19999980927,229,"mirror","dist",0,4,"CR","dist3"
5,"sheep-and-wolf","10/31/2023","sheep",NA,"A128YNJ54F176I","A128YNJ54F176I_sheep","sheep",18,322286,2108.79999995232,227,"mirror","sheep",1,3,"FA","sheep"
5,"sheep-and-wolf","10/31/2023","sheep",NA,"A128YNJ54F176I","A128YNJ54F176I_sheep","sheep",19,332597,5001.40000009537,176,"mirror","wolf",0,3,"CR","wolf"
5,"sheep-and-wolf","10/31/2023","sheep",NA,"A128YNJ54F176I","A128YNJ54F176I_sheep","sheep",20,339935,1721.79999995232,160,"chase","sheep",1,3,"Hit","sheep"
5,"sheep-and-wolf","10/31/2023","sheep",NA,"A128YNJ54F176I","A128YNJ54F176I_sheep","sheep",21,346957,1394,146,"chase","dist",0,3,"Ms","dist4"
5,"sheep-and-wolf","10/31/2023","sheep",NA,"A128YNJ54F176I","A128YNJ54F176I_sheep","sheep",22,355850,3309,45,"mirror","dist",0,3,"CR","dist2"
5,"sheep-and-wolf","10/31/2023","sheep",NA,"A128YNJ54F176I","A128YNJ54F176I_sheep","sheep",23,363001,1392.60000014305,230,"mirror","wolf",0,5,"CR","wolf"
5,"sheep-and-wolf","10/31/2023","sheep",NA,"A128YNJ54F176I","A128YNJ54F176I_sheep","sheep",24,370202,1570.19999980927,221,"mirror","dist",0,5,"CR","dist4"
5,"sheep-and-wolf","10/31/2023","sheep",NA,"A128YNJ54F176I","A128YNJ54F176I_sheep","sheep",25,377532,1754.59999990463,105,"mirror","sheep",1,5,"FA","sheep"
5,"sheep-and-wolf","10/31/2023","sheep",NA,"A128YNJ54F176I","A128YNJ54F176I_sheep","sheep",26,385377,2145,80,"chase","dist",0,5,"Ms","dist6"
5,"sheep-and-wolf","10/31/2023","sheep",NA,"A128YNJ54F176I","A128YNJ54F176I_sheep","sheep",27,392491,1438.5,143,"mirror","dist",0,4,"CR","dist3"
5,"sheep-and-wolf","10/31/2023","sheep",NA,"A128YNJ54F176I","A128YNJ54F176I_sheep","sheep",28,406717,6347.29999995232,216,"mirror","dist",0,4,"CR","dist1"
5,"sheep-and-wolf","10/31/2023","sheep",NA,"A128YNJ54F176I","A128YNJ54F176I_sheep","sheep",29,414661,2126.19999980927,12,"mirror","sheep",1,4,"FA","sheep"
5,"sheep-and-wolf","10/31/2023","sheep",NA,"A128YNJ54F176I","A128YNJ54F176I_sheep","sheep",30,422881,2408.70000004768,83,"chase","dist",0,4,"Ms","dist1"
5,"sheep-and-wolf","10/31/2023","sheep",NA,"A128YNJ54F176I","A128YNJ54F176I_sheep","sheep",31,431637,3159.39999985695,116,"mirror","dist",0,4,"CR","dist1"
5,"sheep-and-wolf","10/31/2023","sheep",NA,"A128YNJ54F176I","A128YNJ54F176I_sheep","sheep",32,439661,1861.40000009537,163,"chase","sheep",1,4,"Hit","sheep"
5,"sheep-and-wolf","10/31/2023","sheep",NA,"A128YNJ54F176I","A128YNJ54F176I_sheep","sheep",33,486183,1490.29999995232,169,"mirror","dist",0,4,"CR","dist5"
5,"sheep-and-wolf","10/31/2023","sheep",NA,"A128YNJ54F176I","A128YNJ54F176I_sheep","sheep",34,494582,2057.79999995232,183,"chase","sheep",1,4,"Hit","sheep"
5,"sheep-and-wolf","10/31/2023","sheep",NA,"A128YNJ54F176I","A128YNJ54F176I_sheep","sheep",35,501384,1541.19999980927,202,"mirror","dist",0,4,"CR","dist3"
5,"sheep-and-wolf","10/31/2023","sheep",NA,"A128YNJ54F176I","A128YNJ54F176I_sheep","sheep",36,508558,1536.59999990463,191,"mirror","dist",0,4,"CR","dist1"
5,"sheep-and-wolf","10/31/2023","sheep",NA,"A128YNJ54F176I","A128YNJ54F176I_sheep","sheep",37,518269,3440.20000004768,28,"mirror","wolf",0,4,"CR","wolf"
5,"sheep-and-wolf","10/31/2023","sheep",NA,"A128YNJ54F176I","A128YNJ54F176I_sheep","sheep",38,526033,2015.60000014305,5,"mirror","dist",0,3,"CR","dist3"
5,"sheep-and-wolf","10/31/2023","sheep",NA,"A128YNJ54F176I","A128YNJ54F176I_sheep","sheep",39,533552,1290.40000009537,151,"chase","dist",0,5,"Ms","dist5"
5,"sheep-and-wolf","10/31/2023","sheep",NA,"A128YNJ54F176I","A128YNJ54F176I_sheep","sheep",40,541729,2243.59999990463,243,"mirror","dist",0,4,"CR","dist6"
5,"sheep-and-wolf","10/31/2023","sheep",NA,"A128YNJ54F176I","A128YNJ54F176I_sheep","sheep",41,548674,1319.70000004768,77,"mirror","dist",0,4,"CR","dist2"
5,"sheep-and-wolf","10/31/2023","sheep",NA,"A128YNJ54F176I","A128YNJ54F176I_sheep","sheep",42,558144,2956.90000009537,240,"mirror","dist",0,4,"CR","dist5"
5,"sheep-and-wolf","10/31/2023","sheep",NA,"A128YNJ54F176I","A128YNJ54F176I_sheep","sheep",43,566791,2521.09999990463,48,"chase","sheep",1,5,"Hit","sheep"
5,"sheep-and-wolf","10/31/2023","sheep",NA,"A128YNJ54F176I","A128YNJ54F176I_sheep","sheep",44,573991,1469.39999985695,261,"mirror","dist",0,4,"CR","dist6"
5,"sheep-and-wolf","10/31/2023","sheep",NA,"A128YNJ54F176I","A128YNJ54F176I_sheep","sheep",45,581098,1340.40000009537,133,"chase","wolf",0,4,"Ms","wolf"
5,"sheep-and-wolf","10/31/2023","sheep",NA,"A128YNJ54F176I","A128YNJ54F176I_sheep","sheep",46,588113,1254.10000014305,6,"mirror","dist",0,4,"CR","dist6"
5,"sheep-and-wolf","10/31/2023","sheep",NA,"A128YNJ54F176I","A128YNJ54F176I_sheep","sheep",47,601337,7321.5,242,"mirror","dist",0,4,"CR","dist1"
5,"sheep-and-wolf","10/31/2023","sheep",NA,"A128YNJ54F176I","A128YNJ54F176I_sheep","sheep",48,611921,2610.90000009537,67,"mirror","dist",0,4,"CR","dist5"
5,"sheep-and-wolf","10/31/2023","sheep",NA,"A128YNJ54F176I","A128YNJ54F176I_sheep","sheep",49,618729,1220.90000009537,148,"chase","dist",0,3,"Ms","dist5"
5,"sheep-and-wolf","10/31/2023","sheep",NA,"A128YNJ54F176I","A128YNJ54F176I_sheep","sheep",50,625762,1240.40000009537,219,"mirror","dist",0,3,"CR","dist3"
5,"sheep-and-wolf","10/31/2023","sheep",NA,"A128YNJ54F176I","A128YNJ54F176I_sheep","sheep",51,634424,3024.20000004768,251,"mirror","dist",0,3,"CR","dist1"
5,"sheep-and-wolf","10/31/2023","sheep",NA,"A128YNJ54F176I","A128YNJ54F176I_sheep","sheep",52,641411,1429.20000004768,286,"mirror","dist",0,3,"CR","dist2"
5,"sheep-and-wolf","10/31/2023","sheep",NA,"A128YNJ54F176I","A128YNJ54F176I_sheep","sheep",53,649571,2561,205,"chase","dist",0,3,"Ms","dist5"
5,"sheep-and-wolf","10/31/2023","sheep",NA,"A128YNJ54F176I","A128YNJ54F176I_sheep","sheep",54,658074,2813.39999985695,103,"chase","sheep",1,3,"Hit","sheep"
5,"sheep-and-wolf","10/31/2023","sheep",NA,"A128YNJ54F176I","A128YNJ54F176I_sheep","sheep",55,666137,2741.09999990463,173,"mirror","dist",0,3,"CR","dist3"
5,"sheep-and-wolf","10/31/2023","sheep",NA,"A128YNJ54F176I","A128YNJ54F176I_sheep","sheep",56,718318,1454.60000014305,4,"chase","dist",0,3,"Ms","dist2"
5,"sheep-and-wolf","10/31/2023","sheep",NA,"A128YNJ54F176I","A128YNJ54F176I_sheep","sheep",57,725378,1414.39999985695,267,"chase","sheep",1,3,"Hit","sheep"
5,"sheep-and-wolf","10/31/2023","sheep",NA,"A128YNJ54F176I","A128YNJ54F176I_sheep","sheep",58,735314,2537.60000014305,250,"chase","dist",0,2,"Ms","dist4"
5,"sheep-and-wolf","10/31/2023","sheep",NA,"A128YNJ54F176I","A128YNJ54F176I_sheep","sheep",59,743098,1410.10000014305,167,"chase","sheep",1,5,"Hit","sheep"
5,"sheep-and-wolf","10/31/2023","sheep",NA,"A128YNJ54F176I","A128YNJ54F176I_sheep","sheep",60,750826,2245,93,"mirror","dist",0,4,"CR","dist1"
5,"sheep-and-wolf","10/31/2023","sheep",NA,"A128YNJ54F176I","A128YNJ54F176I_sheep","sheep",61,760402,3667.09999990463,268,"chase","dist",0,4,"Ms","dist1"
5,"sheep-and-wolf","10/31/2023","sheep",NA,"A128YNJ54F176I","A128YNJ54F176I_sheep","sheep",62,767571,1510.90000009537,260,"mirror","dist",0,4,"CR","dist4"
5,"sheep-and-wolf","10/31/2023","sheep",NA,"A128YNJ54F176I","A128YNJ54F176I_sheep","sheep",63,783737,1756.5,9,"chase","sheep",1,4,"Hit","sheep"
5,"sheep-and-wolf","10/31/2023","sheep",NA,"A128YNJ54F176I","A128YNJ54F176I_sheep","sheep",64,791018,2259.79999995232,194,"chase","sheep",1,3,"Hit","sheep"
5,"sheep-and-wolf","10/31/2023","sheep",NA,"A128YNJ54F176I","A128YNJ54F176I_sheep","sheep",65,798282,1565.30000019073,18,"mirror","dist",0,3,"CR","dist3"
5,"sheep-and-wolf","10/31/2023","sheep",NA,"A128YNJ54F176I","A128YNJ54F176I_sheep","sheep",66,806505,1678.09999990463,65,"chase","sheep",1,4,"Hit","sheep"
5,"sheep-and-wolf","10/31/2023","sheep",NA,"A128YNJ54F176I","A128YNJ54F176I_sheep","sheep",67,814107,1962,42,"chase","dist",0,3,"Ms","dist3"
5,"sheep-and-wolf","10/31/2023","sheep",NA,"A128YNJ54F176I","A128YNJ54F176I_sheep","sheep",68,822792,2774.19999980927,207,"mirror","dist",0,3,"CR","dist5"
5,"sheep-and-wolf","10/31/2023","sheep",NA,"A128YNJ54F176I","A128YNJ54F176I_sheep","sheep",69,829835,1321.20000004768,112,"chase","sheep",1,4,"Hit","sheep"
5,"sheep-and-wolf","10/31/2023","sheep",NA,"A128YNJ54F176I","A128YNJ54F176I_sheep","sheep",70,837131,1806.29999995232,81,"mirror","wolf",0,4,"CR","wolf"
5,"sheep-and-wolf","10/31/2023","wolf",NA,"A128YNJ54F176I","A128YNJ54F176I_wolf","sheep",1,7508452,2751.79999995232,196,"mirror","dist",0,4,"CR","dist4"
5,"sheep-and-wolf","10/31/2023","wolf",NA,"A128YNJ54F176I","A128YNJ54F176I_wolf","sheep",2,7516260,2057.89999985695,189,"chase","sheep",0,5,"Ms","sheep"
5,"sheep-and-wolf","10/31/2023","wolf",NA,"A128YNJ54F176I","A128YNJ54F176I_wolf","sheep",3,7523613,1250.90000009537,193,"chase","wolf",1,5,"Hit","wolf"
5,"sheep-and-wolf","10/31/2023","wolf",NA,"A128YNJ54F176I","A128YNJ54F176I_wolf","sheep",4,7532972,3348.79999995232,90,"chase","wolf",1,3,"Hit","wolf"
5,"sheep-and-wolf","10/31/2023","wolf",NA,"A128YNJ54F176I","A128YNJ54F176I_wolf","sheep",5,7541973,3539.09999990463,61,"chase","sheep",0,4,"Ms","sheep"
5,"sheep-and-wolf","10/31/2023","wolf",NA,"A128YNJ54F176I","A128YNJ54F176I_wolf","sheep",6,7549004,1465.80000019073,79,"chase","wolf",1,4,"Hit","wolf"
5,"sheep-and-wolf","10/31/2023","wolf",NA,"A128YNJ54F176I","A128YNJ54F176I_wolf","sheep",7,7555755,1307.5,213,"chase","wolf",1,3,"Hit","wolf"
5,"sheep-and-wolf","10/31/2023","wolf",NA,"A128YNJ54F176I","A128YNJ54F176I_wolf","sheep",8,7562628,1207.5,282,"chase","wolf",1,3,"Hit","wolf"
5,"sheep-and-wolf","10/31/2023","wolf",NA,"A128YNJ54F176I","A128YNJ54F176I_wolf","sheep",9,7569284,1227.40000009537,114,"chase","wolf",1,3,"Hit","wolf"
5,"sheep-and-wolf","10/31/2023","wolf",NA,"A128YNJ54F176I","A128YNJ54F176I_wolf","sheep",10,7580900,6481.20000004768,210,"chase","sheep",0,3,"Ms","sheep"
5,"sheep-and-wolf","10/31/2023","wolf",NA,"A128YNJ54F176I","A128YNJ54F176I_wolf","sheep",11,7587775,1255,85,"chase","wolf",1,3,"Hit","wolf"
5,"sheep-and-wolf","10/31/2023","wolf",NA,"A128YNJ54F176I","A128YNJ54F176I_wolf","sheep",12,7594468,1211.20000004768,236,"mirror","dist",0,3,"CR","dist6"
5,"sheep-and-wolf","10/31/2023","wolf",NA,"A128YNJ54F176I","A128YNJ54F176I_wolf","sheep",13,7602789,1086.5,84,"chase","wolf",1,3,"Hit","wolf"
5,"sheep-and-wolf","10/31/2023","wolf",NA,"A128YNJ54F176I","A128YNJ54F176I_wolf","sheep",14,7610785,2422.90000009537,46,"chase","wolf",1,3,"Hit","wolf"
5,"sheep-and-wolf","10/31/2023","wolf",NA,"A128YNJ54F176I","A128YNJ54F176I_wolf","sheep",15,7620491,2670.59999990463,124,"mirror","dist",0,4,"CR","dist5"
5,"sheep-and-wolf","10/31/2023","wolf",NA,"A128YNJ54F176I","A128YNJ54F176I_wolf","sheep",16,7629662,3041.59999990463,53,"chase","dist",0,5,"Ms","dist5"
5,"sheep-and-wolf","10/31/2023","wolf",NA,"A128YNJ54F176I","A128YNJ54F176I_wolf","sheep",17,7637636,1955.60000014305,229,"mirror","wolf",1,4,"FA","wolf"
5,"sheep-and-wolf","10/31/2023","wolf",NA,"A128YNJ54F176I","A128YNJ54F176I_wolf","sheep",18,7646691,2461.19999980927,227,"mirror","dist",0,4,"CR","dist1"
5,"sheep-and-wolf","10/31/2023","wolf",NA,"A128YNJ54F176I","A128YNJ54F176I_wolf","sheep",19,7656898,1923.59999990463,176,"mirror","wolf",1,4,"FA","wolf"
5,"sheep-and-wolf","10/31/2023","wolf",NA,"A128YNJ54F176I","A128YNJ54F176I_wolf","sheep",20,7664075,1601.29999995232,160,"chase","wolf",1,4,"Hit","wolf"
5,"sheep-and-wolf","10/31/2023","wolf",NA,"A128YNJ54F176I","A128YNJ54F176I_wolf","sheep",21,7671365,1230.40000009537,146,"chase","dist",0,4,"Ms","dist2"
5,"sheep-and-wolf","10/31/2023","wolf",NA,"A128YNJ54F176I","A128YNJ54F176I_wolf","sheep",22,7678467,1812.89999985695,45,"mirror","dist",0,3,"CR","dist5"
5,"sheep-and-wolf","10/31/2023","wolf",NA,"A128YNJ54F176I","A128YNJ54F176I_wolf","sheep",23,7685620,1430.79999995232,230,"mirror","dist",0,2,"CR","dist1"
5,"sheep-and-wolf","10/31/2023","wolf",NA,"A128YNJ54F176I","A128YNJ54F176I_wolf","sheep",24,7692885,1867.5,221,"mirror","wolf",1,4,"FA","wolf"
5,"sheep-and-wolf","10/31/2023","wolf",NA,"A128YNJ54F176I","A128YNJ54F176I_wolf","sheep",25,7700444,1496.89999985695,105,"mirror","dist",0,4,"CR","dist2"
5,"sheep-and-wolf","10/31/2023","wolf",NA,"A128YNJ54F176I","A128YNJ54F176I_wolf","sheep",26,7707779,1276.30000019073,80,"chase","wolf",1,4,"Hit","wolf"
5,"sheep-and-wolf","10/31/2023","wolf",NA,"A128YNJ54F176I","A128YNJ54F176I_wolf","sheep",27,7715948,2472.89999985695,143,"mirror","dist",0,4,"CR","dist2"
5,"sheep-and-wolf","10/31/2023","wolf",NA,"A128YNJ54F176I","A128YNJ54F176I_wolf","sheep",28,7723544,2163.60000014305,216,"mirror","dist",0,3,"CR","dist5"
5,"sheep-and-wolf","10/31/2023","wolf",NA,"A128YNJ54F176I","A128YNJ54F176I_wolf","sheep",29,7730837,1642.5,12,"mirror","dist",0,3,"CR","dist4"
5,"sheep-and-wolf","10/31/2023","wolf",NA,"A128YNJ54F176I","A128YNJ54F176I_wolf","sheep",30,7738284,1589.39999985695,83,"chase","wolf",1,5,"Hit","wolf"
5,"sheep-and-wolf","10/31/2023","wolf",NA,"A128YNJ54F176I","A128YNJ54F176I_wolf","sheep",31,7747707,1329.70000004768,116,"mirror","dist",0,5,"CR","dist2"
5,"sheep-and-wolf","10/31/2023","wolf",NA,"A128YNJ54F176I","A128YNJ54F176I_wolf","sheep",32,7760627,5512,163,"chase","wolf",1,5,"Hit","wolf"
5,"sheep-and-wolf","10/31/2023","wolf",NA,"A128YNJ54F176I","A128YNJ54F176I_wolf","sheep",33,7803561,10882.6000001431,169,"mirror","dist",0,4,"CR","dist5"
5,"sheep-and-wolf","10/31/2023","wolf",NA,"A128YNJ54F176I","A128YNJ54F176I_wolf","sheep",34,7810529,1698.70000004768,183,"chase","dist",0,4,"Ms","dist2"
5,"sheep-and-wolf","10/31/2023","wolf",NA,"A128YNJ54F176I","A128YNJ54F176I_wolf","sheep",35,7822842,4092.59999990463,202,"mirror","dist",0,5,"CR","dist3"
5,"sheep-and-wolf","10/31/2023","wolf",NA,"A128YNJ54F176I","A128YNJ54F176I_wolf","sheep",36,7904115,4719.5,191,"mirror","dist",0,3,"CR","dist2"
5,"sheep-and-wolf","10/31/2023","wolf",NA,"A128YNJ54F176I","A128YNJ54F176I_wolf","sheep",37,7912545,1264.79999995232,28,"mirror","dist",0,5,"CR","dist3"
5,"sheep-and-wolf","10/31/2023","wolf",NA,"A128YNJ54F176I","A128YNJ54F176I_wolf","sheep",38,7942706,4598.69999980927,5,"mirror","dist",0,5,"CR","dist4"
5,"sheep-and-wolf","10/31/2023","wolf",NA,"A128YNJ54F176I","A128YNJ54F176I_wolf","sheep",39,7958568,1504.20000004768,151,"chase","dist",0,4,"Ms","dist2"
5,"sheep-and-wolf","10/31/2023","wolf",NA,"A128YNJ54F176I","A128YNJ54F176I_wolf","sheep",40,7968313,2508.20000004768,243,"mirror","dist",0,3,"CR","dist6"
5,"sheep-and-wolf","10/31/2023","wolf",NA,"A128YNJ54F176I","A128YNJ54F176I_wolf","sheep",41,7976572,2933.90000009537,77,"mirror","wolf",1,3,"FA","wolf"
5,"sheep-and-wolf","10/31/2023","wolf",NA,"A128YNJ54F176I","A128YNJ54F176I_wolf","sheep",42,8031895,1406,240,"mirror","dist",0,3,"CR","dist4"
5,"sheep-and-wolf","10/31/2023","wolf",NA,"A128YNJ54F176I","A128YNJ54F176I_wolf","sheep",43,8040062,2067.5,48,"chase","wolf",1,5,"Hit","wolf"
5,"sheep-and-wolf","10/31/2023","wolf",NA,"A128YNJ54F176I","A128YNJ54F176I_wolf","sheep",44,8048274,1999.60000014305,261,"mirror","dist",0,3,"CR","dist1"
5,"sheep-and-wolf","10/31/2023","wolf",NA,"A128YNJ54F176I","A128YNJ54F176I_wolf","sheep",45,8063567,9283.20000004768,133,"chase","wolf",1,3,"Hit","wolf"
5,"sheep-and-wolf","10/31/2023","wolf",NA,"A128YNJ54F176I","A128YNJ54F176I_wolf","sheep",46,8071095,1701,6,"mirror","sheep",0,4,"CR","sheep"
5,"sheep-and-wolf","10/31/2023","wolf",NA,"A128YNJ54F176I","A128YNJ54F176I_wolf","sheep",47,8078516,1170.59999990463,242,"mirror","dist",0,3,"CR","dist1"
5,"sheep-and-wolf","10/31/2023","wolf",NA,"A128YNJ54F176I","A128YNJ54F176I_wolf","sheep",48,8086326,1903.79999995232,67,"mirror","dist",0,3,"CR","dist2"
5,"sheep-and-wolf","10/31/2023","wolf",NA,"A128YNJ54F176I","A128YNJ54F176I_wolf","sheep",49,8093398,1877.59999990463,148,"chase","wolf",1,5,"Hit","wolf"
5,"sheep-and-wolf","10/31/2023","wolf",NA,"A128YNJ54F176I","A128YNJ54F176I_wolf","sheep",50,8105502,5836.69999980927,219,"mirror","dist",0,4,"CR","dist4"
5,"sheep-and-wolf","10/31/2023","wolf",NA,"A128YNJ54F176I","A128YNJ54F176I_wolf","sheep",51,8118607,4176.79999995232,251,"mirror","dist",0,4,"CR","dist6"
5,"sheep-and-wolf","10/31/2023","wolf",NA,"A128YNJ54F176I","A128YNJ54F176I_wolf","sheep",52,8127071,2539.20000004768,286,"mirror","dist",0,3,"CR","dist6"
5,"sheep-and-wolf","10/31/2023","wolf",NA,"A128YNJ54F176I","A128YNJ54F176I_wolf","sheep",53,8136108,3281.90000009537,205,"chase","dist",0,5,"Ms","dist5"
5,"sheep-and-wolf","10/31/2023","wolf",NA,"A128YNJ54F176I","A128YNJ54F176I_wolf","sheep",54,8143766,1683.60000014305,103,"chase","wolf",1,5,"Hit","wolf"
5,"sheep-and-wolf","10/31/2023","wolf",NA,"A128YNJ54F176I","A128YNJ54F176I_wolf","sheep",55,8155639,5847.20000004768,173,"mirror","dist",0,4,"CR","dist6"
5,"sheep-and-wolf","10/31/2023","wolf",NA,"A128YNJ54F176I","A128YNJ54F176I_wolf","sheep",56,8162791,1537.59999990463,4,"chase","wolf",1,5,"Hit","wolf"
5,"sheep-and-wolf","10/31/2023","wolf",NA,"A128YNJ54F176I","A128YNJ54F176I_wolf","sheep",57,8169767,1390.40000009537,267,"chase","wolf",1,5,"Hit","wolf"
5,"sheep-and-wolf","10/31/2023","wolf",NA,"A128YNJ54F176I","A128YNJ54F176I_wolf","sheep",58,8178911,2935.89999985695,250,"chase","dist",0,4,"Ms","dist5"
5,"sheep-and-wolf","10/31/2023","wolf",NA,"A128YNJ54F176I","A128YNJ54F176I_wolf","sheep",59,8191543,2493.60000014305,167,"chase","dist",0,3,"Ms","dist1"
5,"sheep-and-wolf","10/31/2023","wolf",NA,"A128YNJ54F176I","A128YNJ54F176I_wolf","sheep",60,8198784,1565.90000009537,93,"mirror","dist",0,4,"CR","dist1"
5,"sheep-and-wolf","10/31/2023","wolf",NA,"A128YNJ54F176I","A128YNJ54F176I_wolf","sheep",61,8208414,2226.20000004768,268,"chase","wolf",1,5,"Hit","wolf"
5,"sheep-and-wolf","10/31/2023","wolf",NA,"A128YNJ54F176I","A128YNJ54F176I_wolf","sheep",62,8215782,1673.39999985695,260,"mirror","dist",0,4,"CR","dist2"
5,"sheep-and-wolf","10/31/2023","wolf",NA,"A128YNJ54F176I","A128YNJ54F176I_wolf","sheep",63,8223583,1594.40000009537,9,"chase","wolf",1,5,"Hit","wolf"
5,"sheep-and-wolf","10/31/2023","wolf",NA,"A128YNJ54F176I","A128YNJ54F176I_wolf","sheep",64,8230886,1859.20000004768,194,"chase","dist",0,4,"Ms","dist4"
5,"sheep-and-wolf","10/31/2023","wolf",NA,"A128YNJ54F176I","A128YNJ54F176I_wolf","sheep",65,8238000,1834.70000004768,18,"mirror","dist",0,3,"CR","dist4"
5,"sheep-and-wolf","10/31/2023","wolf",NA,"A128YNJ54F176I","A128YNJ54F176I_wolf","sheep",66,8245423,1283.5,65,"chase","wolf",1,5,"Hit","wolf"
5,"sheep-and-wolf","10/31/2023","wolf",NA,"A128YNJ54F176I","A128YNJ54F176I_wolf","sheep",67,8252549,1422.29999995232,42,"chase","wolf",1,5,"Hit","wolf"
5,"sheep-and-wolf","10/31/2023","wolf",NA,"A128YNJ54F176I","A128YNJ54F176I_wolf","sheep",68,8260765,3078.5,207,"mirror","dist",0,3,"CR","dist2"
5,"sheep-and-wolf","10/31/2023","wolf",NA,"A128YNJ54F176I","A128YNJ54F176I_wolf","sheep",69,8270148,3659.40000009537,112,"chase","dist",0,3,"Ms","dist5"
5,"sheep-and-wolf","10/31/2023","wolf",NA,"A128YNJ54F176I","A128YNJ54F176I_wolf","sheep",70,8279212,3405.69999980927,81,"mirror","sheep",0,3,"CR","sheep"
5,"sheep-and-wolf","10/31/2023","wolf",NA,"A12HZGOZQD5YK7","A12HZGOZQD5YK7_wolf","wolf",1,206426,1146.69999998808,165,"chase","wolf",1,1,"Hit","wolf"
5,"sheep-and-wolf","10/31/2023","wolf",NA,"A12HZGOZQD5YK7","A12HZGOZQD5YK7_wolf","wolf",2,213376,1141.39999997616,177,"mirror","wolf",1,1,"FA","wolf"
5,"sheep-and-wolf","10/31/2023","wolf",NA,"A12HZGOZQD5YK7","A12HZGOZQD5YK7_wolf","wolf",3,221248,970.099999964237,157,"chase","wolf",1,5,"Hit","wolf"
5,"sheep-and-wolf","10/31/2023","wolf",NA,"A12HZGOZQD5YK7","A12HZGOZQD5YK7_wolf","wolf",4,228694,981.600000023842,156,"chase","wolf",1,4,"Hit","wolf"
5,"sheep-and-wolf","10/31/2023","wolf",NA,"A12HZGOZQD5YK7","A12HZGOZQD5YK7_wolf","wolf",5,235990,751.299999952316,123,"chase","wolf",1,4,"Hit","wolf"
5,"sheep-and-wolf","10/31/2023","wolf",NA,"A12HZGOZQD5YK7","A12HZGOZQD5YK7_wolf","wolf",6,243718,840.599999964237,170,"chase","wolf",1,5,"Hit","wolf"
5,"sheep-and-wolf","10/31/2023","wolf",NA,"A12HZGOZQD5YK7","A12HZGOZQD5YK7_wolf","wolf",7,250226,926,206,"chase","wolf",1,5,"Hit","wolf"
5,"sheep-and-wolf","10/31/2023","wolf",NA,"A12HZGOZQD5YK7","A12HZGOZQD5YK7_wolf","wolf",8,258420,768,172,"chase","wolf",1,5,"Hit","wolf"
5,"sheep-and-wolf","10/31/2023","wolf",NA,"A12HZGOZQD5YK7","A12HZGOZQD5YK7_wolf","wolf",9,268426,1768.09999996424,109,"mirror","dist",0,1,"CR","dist1"
5,"sheep-and-wolf","10/31/2023","wolf",NA,"A12HZGOZQD5YK7","A12HZGOZQD5YK7_wolf","wolf",10,276855,2787.60000002384,35,"chase","dist",0,1,"Ms","dist5"
5,"sheep-and-wolf","10/31/2023","wolf",NA,"A12HZGOZQD5YK7","A12HZGOZQD5YK7_wolf","wolf",11,284762,1815.40000003576,46,"mirror","dist",0,1,"CR","dist4"
5,"sheep-and-wolf","10/31/2023","wolf",NA,"A12HZGOZQD5YK7","A12HZGOZQD5YK7_wolf","wolf",12,292152,1498.69999998808,3,"mirror","wolf",1,1,"FA","wolf"
5,"sheep-and-wolf","10/31/2023","wolf",NA,"A12HZGOZQD5YK7","A12HZGOZQD5YK7_wolf","wolf",13,299650,998.900000035763,209,"chase","wolf",1,3,"Hit","wolf"
5,"sheep-and-wolf","10/31/2023","wolf",NA,"A12HZGOZQD5YK7","A12HZGOZQD5YK7_wolf","wolf",14,306995,789.400000035763,207,"chase","wolf",1,5,"Hit","wolf"
5,"sheep-and-wolf","10/31/2023","wolf",NA,"A12HZGOZQD5YK7","A12HZGOZQD5YK7_wolf","wolf",15,314318,1026.30000001192,143,"chase","wolf",1,5,"Hit","wolf"
5,"sheep-and-wolf","10/31/2023","wolf",NA,"A12HZGOZQD5YK7","A12HZGOZQD5YK7_wolf","wolf",16,322448,2333.09999996424,36,"mirror","dist",0,2,"CR","dist3"
5,"sheep-and-wolf","10/31/2023","wolf",NA,"A12HZGOZQD5YK7","A12HZGOZQD5YK7_wolf","wolf",17,330355,1705.90000003576,56,"mirror","dist",0,1,"CR","dist6"
5,"sheep-and-wolf","10/31/2023","wolf",NA,"A12HZGOZQD5YK7","A12HZGOZQD5YK7_wolf","wolf",18,337642,1615.39999997616,298,"mirror","dist",0,2,"CR","dist4"
5,"sheep-and-wolf","10/31/2023","wolf",NA,"A12HZGOZQD5YK7","A12HZGOZQD5YK7_wolf","wolf",19,344753,1139.30000001192,295,"chase","dist",0,2,"Ms","dist5"
5,"sheep-and-wolf","10/31/2023","wolf",NA,"A12HZGOZQD5YK7","A12HZGOZQD5YK7_wolf","wolf",20,352437,1061.59999996424,138,"chase","dist",0,3,"Ms","dist3"
5,"sheep-and-wolf","10/31/2023","wolf",NA,"A12HZGOZQD5YK7","A12HZGOZQD5YK7_wolf","wolf",21,359429,1147.60000002384,104,"chase","wolf",1,2,"Hit","wolf"
5,"sheep-and-wolf","10/31/2023","wolf",NA,"A12HZGOZQD5YK7","A12HZGOZQD5YK7_wolf","wolf",22,365871,1026.30000001192,204,"chase","wolf",1,3,"Hit","wolf"
5,"sheep-and-wolf","10/31/2023","wolf",NA,"A12HZGOZQD5YK7","A12HZGOZQD5YK7_wolf","wolf",23,372276,951.800000011921,184,"chase","wolf",1,2,"Hit","wolf"
5,"sheep-and-wolf","10/31/2023","wolf",NA,"A12HZGOZQD5YK7","A12HZGOZQD5YK7_wolf","wolf",24,379603,1079.69999998808,164,"mirror","dist",0,2,"CR","dist6"
5,"sheep-and-wolf","10/31/2023","wolf",NA,"A12HZGOZQD5YK7","A12HZGOZQD5YK7_wolf","wolf",25,387244,965.5,82,"chase","wolf",1,3,"Hit","wolf"
5,"sheep-and-wolf","10/31/2023","wolf",NA,"A12HZGOZQD5YK7","A12HZGOZQD5YK7_wolf","wolf",26,395619,2001.59999996424,282,"mirror","dist",0,1,"CR","dist1"
5,"sheep-and-wolf","10/31/2023","wolf",NA,"A12HZGOZQD5YK7","A12HZGOZQD5YK7_wolf","wolf",27,402461,921.300000011921,178,"chase","sheep",0,2,"Ms","sheep"
5,"sheep-and-wolf","10/31/2023","wolf",NA,"A12HZGOZQD5YK7","A12HZGOZQD5YK7_wolf","wolf",28,409778,1271.90000003576,70,"chase","wolf",1,5,"Hit","wolf"
5,"sheep-and-wolf","10/31/2023","wolf",NA,"A12HZGOZQD5YK7","A12HZGOZQD5YK7_wolf","wolf",29,417129,1136.5,139,"chase","wolf",1,5,"Hit","wolf"
5,"sheep-and-wolf","10/31/2023","wolf",NA,"A12HZGOZQD5YK7","A12HZGOZQD5YK7_wolf","wolf",30,424564,1494.40000003576,289,"chase","wolf",1,5,"Hit","wolf"
5,"sheep-and-wolf","10/31/2023","wolf",NA,"A12HZGOZQD5YK7","A12HZGOZQD5YK7_wolf","wolf",31,440149,1597.89999997616,145,"chase","sheep",0,2,"Ms","sheep"
5,"sheep-and-wolf","10/31/2023","wolf",NA,"A12HZGOZQD5YK7","A12HZGOZQD5YK7_wolf","wolf",32,446934,970.699999988079,290,"mirror","dist",0,1,"CR","dist6"
5,"sheep-and-wolf","10/31/2023","wolf",NA,"A12HZGOZQD5YK7","A12HZGOZQD5YK7_wolf","wolf",33,454416,1662.09999996424,37,"mirror","dist",0,1,"CR","dist3"
5,"sheep-and-wolf","10/31/2023","wolf",NA,"A12HZGOZQD5YK7","A12HZGOZQD5YK7_wolf","wolf",34,462821,2459.10000002384,155,"mirror","dist",0,1,"CR","dist6"
5,"sheep-and-wolf","10/31/2023","wolf",NA,"A12HZGOZQD5YK7","A12HZGOZQD5YK7_wolf","wolf",35,470409,1447.59999996424,271,"mirror","sheep",0,1,"CR","sheep"
5,"sheep-and-wolf","10/31/2023","wolf",NA,"A12HZGOZQD5YK7","A12HZGOZQD5YK7_wolf","wolf",36,477964,1801.89999997616,61,"mirror","dist",0,1,"CR","dist2"
5,"sheep-and-wolf","10/31/2023","wolf",NA,"A12HZGOZQD5YK7","A12HZGOZQD5YK7_wolf","wolf",37,485138,1129.69999998808,88,"mirror","dist",0,1,"CR","dist2"
5,"sheep-and-wolf","10/31/2023","wolf",NA,"A12HZGOZQD5YK7","A12HZGOZQD5YK7_wolf","wolf",38,492377,762.800000011921,279,"chase","wolf",1,4,"Hit","wolf"
5,"sheep-and-wolf","10/31/2023","wolf",NA,"A12HZGOZQD5YK7","A12HZGOZQD5YK7_wolf","wolf",39,500034,1117.5,118,"chase","wolf",1,3,"Hit","wolf"
5,"sheep-and-wolf","10/31/2023","wolf",NA,"A12HZGOZQD5YK7","A12HZGOZQD5YK7_wolf","wolf",40,506995,872.900000035763,57,"mirror","sheep",0,4,"CR","sheep"
5,"sheep-and-wolf","10/31/2023","wolf",NA,"A12HZGOZQD5YK7","A12HZGOZQD5YK7_wolf","wolf",41,513805,796.800000011921,230,"mirror","dist",0,4,"CR","dist5"
5,"sheep-and-wolf","10/31/2023","wolf",NA,"A12HZGOZQD5YK7","A12HZGOZQD5YK7_wolf","wolf",42,521523,1370.70000004768,227,"mirror","dist",0,1,"CR","dist6"
5,"sheep-and-wolf","10/31/2023","wolf",NA,"A12HZGOZQD5YK7","A12HZGOZQD5YK7_wolf","wolf",43,529154,1158.40000003576,117,"mirror","dist",0,3,"CR","dist6"
5,"sheep-and-wolf","10/31/2023","wolf",NA,"A12HZGOZQD5YK7","A12HZGOZQD5YK7_wolf","wolf",44,536765,1760.59999996424,89,"chase","dist",0,2,"Ms","dist3"
5,"sheep-and-wolf","10/31/2023","wolf",NA,"A12HZGOZQD5YK7","A12HZGOZQD5YK7_wolf","wolf",45,544536,1308.19999998808,278,"chase","wolf",1,2,"Hit","wolf"
5,"sheep-and-wolf","10/31/2023","wolf",NA,"A12HZGOZQD5YK7","A12HZGOZQD5YK7_wolf","wolf",46,551466,968.800000011921,215,"chase","wolf",1,3,"Hit","wolf"
5,"sheep-and-wolf","10/31/2023","wolf",NA,"A12HZGOZQD5YK7","A12HZGOZQD5YK7_wolf","wolf",47,562353,3913.80000001192,132,"mirror","dist",0,1,"CR","dist1"
5,"sheep-and-wolf","10/31/2023","wolf",NA,"A12HZGOZQD5YK7","A12HZGOZQD5YK7_wolf","wolf",48,569802,931.199999988079,122,"chase","dist",0,4,"Ms","dist5"
5,"sheep-and-wolf","10/31/2023","wolf",NA,"A12HZGOZQD5YK7","A12HZGOZQD5YK7_wolf","wolf",49,577404,983.800000011921,188,"chase","wolf",1,4,"Hit","wolf"
5,"sheep-and-wolf","10/31/2023","wolf",NA,"A12HZGOZQD5YK7","A12HZGOZQD5YK7_wolf","wolf",50,585003,1303.79999995232,173,"chase","dist",0,2,"Ms","dist6"
5,"sheep-and-wolf","10/31/2023","wolf",NA,"A12HZGOZQD5YK7","A12HZGOZQD5YK7_wolf","wolf",51,592214,1260,190,"mirror","dist",0,2,"CR","dist4"
5,"sheep-and-wolf","10/31/2023","wolf",NA,"A12HZGOZQD5YK7","A12HZGOZQD5YK7_wolf","wolf",52,600469,2409.80000001192,96,"chase","dist",0,1,"Ms","dist6"
5,"sheep-and-wolf","10/31/2023","wolf",NA,"A12HZGOZQD5YK7","A12HZGOZQD5YK7_wolf","wolf",53,608009,1252.69999998808,220,"chase","dist",0,3,"Ms","dist4"
5,"sheep-and-wolf","10/31/2023","wolf",NA,"A12HZGOZQD5YK7","A12HZGOZQD5YK7_wolf","wolf",54,615237,1129.10000002384,59,"mirror","dist",0,4,"CR","dist4"
5,"sheep-and-wolf","10/31/2023","wolf",NA,"A12HZGOZQD5YK7","A12HZGOZQD5YK7_wolf","wolf",55,624229,2702.30000001192,78,"mirror","dist",0,1,"CR","dist5"
5,"sheep-and-wolf","10/31/2023","wolf",NA,"A12HZGOZQD5YK7","A12HZGOZQD5YK7_wolf","wolf",56,631324,989.5,74,"chase","wolf",1,4,"Hit","wolf"
5,"sheep-and-wolf","10/31/2023","wolf",NA,"A12HZGOZQD5YK7","A12HZGOZQD5YK7_wolf","wolf",57,638586,1889.60000002384,258,"mirror","dist",0,1,"CR","dist2"
5,"sheep-and-wolf","10/31/2023","wolf",NA,"A12HZGOZQD5YK7","A12HZGOZQD5YK7_wolf","wolf",58,645670,1027.60000002384,168,"mirror","dist",0,4,"CR","dist3"
5,"sheep-and-wolf","10/31/2023","wolf",NA,"A12HZGOZQD5YK7","A12HZGOZQD5YK7_wolf","wolf",59,652763,842.699999988079,211,"chase","wolf",1,5,"Hit","wolf"
5,"sheep-and-wolf","10/31/2023","wolf",NA,"A12HZGOZQD5YK7","A12HZGOZQD5YK7_wolf","wolf",60,661378,3045,253,"mirror","dist",0,1,"CR","dist1"
5,"sheep-and-wolf","10/31/2023","wolf",NA,"A12HZGOZQD5YK7","A12HZGOZQD5YK7_wolf","wolf",61,669597,2607.09999996424,64,"mirror","dist",0,1,"CR","dist6"
5,"sheep-and-wolf","10/31/2023","wolf",NA,"A12HZGOZQD5YK7","A12HZGOZQD5YK7_wolf","wolf",62,676603,846.600000023842,264,"mirror","dist",0,3,"CR","dist3"
5,"sheep-and-wolf","10/31/2023","wolf",NA,"A12HZGOZQD5YK7","A12HZGOZQD5YK7_wolf","wolf",63,684056,1224.39999997616,16,"chase","wolf",1,4,"Hit","wolf"
5,"sheep-and-wolf","10/31/2023","wolf",NA,"A12HZGOZQD5YK7","A12HZGOZQD5YK7_wolf","wolf",64,692242,1618.30000001192,286,"mirror","dist",0,1,"CR","dist4"
5,"sheep-and-wolf","10/31/2023","wolf",NA,"A12HZGOZQD5YK7","A12HZGOZQD5YK7_wolf","wolf",65,699344,1364.20000004768,68,"mirror","dist",0,1,"CR","dist2"
5,"sheep-and-wolf","10/31/2023","wolf",NA,"A12HZGOZQD5YK7","A12HZGOZQD5YK7_wolf","wolf",66,705860,814.099999964237,7,"mirror","dist",0,2,"CR","dist4"
5,"sheep-and-wolf","10/31/2023","wolf",NA,"A12HZGOZQD5YK7","A12HZGOZQD5YK7_wolf","wolf",67,712883,1072.69999998808,288,"mirror","dist",0,1,"CR","dist3"
5,"sheep-and-wolf","10/31/2023","wolf",NA,"A12HZGOZQD5YK7","A12HZGOZQD5YK7_wolf","wolf",68,719739,1266,218,"mirror","dist",0,1,"CR","dist1"
5,"sheep-and-wolf","10/31/2023","wolf",NA,"A12HZGOZQD5YK7","A12HZGOZQD5YK7_wolf","wolf",69,727034,1384.40000003576,197,"mirror","wolf",1,1,"FA","wolf"
5,"sheep-and-wolf","10/31/2023","wolf",NA,"A12HZGOZQD5YK7","A12HZGOZQD5YK7_wolf","wolf",70,734663,1303,124,"mirror","dist",0,1,"CR","dist4"
5,"sheep-and-wolf","10/31/2023","sheep",NA,"A12HZGOZQD5YK7","A12HZGOZQD5YK7_sheep","wolf",1,1451413,933.900000035763,165,"chase","sheep",1,4,"Hit","sheep"
5,"sheep-and-wolf","10/31/2023","sheep",NA,"A12HZGOZQD5YK7","A12HZGOZQD5YK7_sheep","wolf",2,1459319,1574.60000002384,177,"mirror","dist",0,1,"CR","dist4"
5,"sheep-and-wolf","10/31/2023","sheep",NA,"A12HZGOZQD5YK7","A12HZGOZQD5YK7_sheep","wolf",3,1466809,1191.90000003576,157,"chase","sheep",1,5,"Hit","sheep"
5,"sheep-and-wolf","10/31/2023","sheep",NA,"A12HZGOZQD5YK7","A12HZGOZQD5YK7_sheep","wolf",4,1473804,1002.69999998808,156,"chase","sheep",1,4,"Hit","sheep"
5,"sheep-and-wolf","10/31/2023","sheep",NA,"A12HZGOZQD5YK7","A12HZGOZQD5YK7_sheep","wolf",5,1480330,921,123,"chase","sheep",1,3,"Hit","sheep"
5,"sheep-and-wolf","10/31/2023","sheep",NA,"A12HZGOZQD5YK7","A12HZGOZQD5YK7_sheep","wolf",6,1487261,833,170,"chase","sheep",1,4,"Hit","sheep"
5,"sheep-and-wolf","10/31/2023","sheep",NA,"A12HZGOZQD5YK7","A12HZGOZQD5YK7_sheep","wolf",7,1493604,893.900000035763,206,"chase","sheep",1,4,"Hit","sheep"
5,"sheep-and-wolf","10/31/2023","sheep",NA,"A12HZGOZQD5YK7","A12HZGOZQD5YK7_sheep","wolf",8,1500376,1156.90000003576,172,"chase","sheep",1,5,"Hit","sheep"
5,"sheep-and-wolf","10/31/2023","sheep",NA,"A12HZGOZQD5YK7","A12HZGOZQD5YK7_sheep","wolf",9,1508135,1771,109,"mirror","dist",0,1,"CR","dist2"
5,"sheep-and-wolf","10/31/2023","sheep",NA,"A12HZGOZQD5YK7","A12HZGOZQD5YK7_sheep","wolf",10,1516683,2400.39999997616,35,"chase","dist",0,1,"Ms","dist6"
5,"sheep-and-wolf","10/31/2023","sheep",NA,"A12HZGOZQD5YK7","A12HZGOZQD5YK7_sheep","wolf",11,1526060,3075.30000001192,46,"mirror","dist",0,1,"CR","dist5"
5,"sheep-and-wolf","10/31/2023","sheep",NA,"A12HZGOZQD5YK7","A12HZGOZQD5YK7_sheep","wolf",12,1532882,1194.69999998808,3,"mirror","dist",0,1,"CR","dist6"
5,"sheep-and-wolf","10/31/2023","sheep",NA,"A12HZGOZQD5YK7","A12HZGOZQD5YK7_sheep","wolf",13,1539866,1649.10000002384,209,"chase","sheep",1,1,"Hit","sheep"
5,"sheep-and-wolf","10/31/2023","sheep",NA,"A12HZGOZQD5YK7","A12HZGOZQD5YK7_sheep","wolf",14,1546110,779.700000047684,207,"chase","sheep",1,4,"Hit","sheep"
5,"sheep-and-wolf","10/31/2023","sheep",NA,"A12HZGOZQD5YK7","A12HZGOZQD5YK7_sheep","wolf",15,1552485,994.5,143,"chase","sheep",1,4,"Hit","sheep"
