experiment,version,interview_date,subjectId,trial_num,time_elapsed,reaction_time,trial_id,condition,choice,correct,confidence,cells,valid_trials,valid_id
6,detect-chase-confidence,11/21/2023,0163CEF6924B41B5A70EE79DD42D6712,1,101961,15581.5,298,mirror,0,1,NA,CR,FALSE,TRUE
6,detect-chase-confidence,11/21/2023,0163CEF6924B41B5A70EE79DD42D6712,2,106985,4009.1,107,chase,1,1,NA,Hit,TRUE,TRUE
6,detect-chase-confidence,11/21/2023,0163CEF6924B41B5A70EE79DD42D6712,3,115564,7564,2,mirror,0,1,NA,CR,TRUE,TRUE
6,detect-chase-confidence,11/21/2023,0163CEF6924B41B5A70EE79DD42D6712,4,123025,6447.8,164,mirror,0,1,NA,CR,TRUE,TRUE
6,detect-chase-confidence,11/21/2023,0163CEF6924B41B5A70EE79DD42D6712,5,129985,5943.6,166,chase,1,1,NA,Hit,TRUE,TRUE
6,detect-chase-confidence,11/21/2023,0163CEF6924B41B5A70EE79DD42D6712,6,136247,5247.1,57,mirror,0,1,NA,CR,TRUE,TRUE
6,detect-chase-confidence,11/21/2023,0163CEF6924B41B5A70EE79DD42D6712,7,142335,5075.3,252,mirror,0,1,NA,CR,TRUE,TRUE
6,detect-chase-confidence,11/21/2023,0163CEF6924B41B5A70EE79DD42D6712,8,148635,5286.2,57,chase,1,1,NA,Hit,TRUE,TRUE
6,detect-chase-confidence,11/21/2023,0163CEF6924B41B5A70EE79DD42D6712,9,155226,5571.3,136,mirror,0,1,NA,CR,TRUE,TRUE
6,detect-chase-confidence,11/21/2023,0163CEF6924B41B5A70EE79DD42D6712,10,162105,5859.4,164,chase,1,1,NA,Hit,TRUE,TRUE
6,detect-chase-confidence,11/21/2023,0163CEF6924B41B5A70EE79DD42D6712,11,168399,5287.8,85,chase,1,1,NA,Hit,TRUE,TRUE
6,detect-chase-confidence,11/21/2023,0163CEF6924B41B5A70EE79DD42D6712,12,174334,4922.7,23,chase,0,0,NA,Ms,TRUE,TRUE
6,detect-chase-confidence,11/21/2023,0163CEF6924B41B5A70EE79DD42D6712,13,181406,6057.1,2,chase,1,1,NA,Hit,TRUE,TRUE
6,detect-chase-confidence,11/21/2023,0163CEF6924B41B5A70EE79DD42D6712,14,187271,4855.5,136,chase,1,1,NA,Hit,TRUE,TRUE
6,detect-chase-confidence,11/21/2023,0163CEF6924B41B5A70EE79DD42D6712,15,192610,4324.7,298,chase,1,1,NA,Hit,TRUE,TRUE
6,detect-chase-confidence,11/21/2023,0163CEF6924B41B5A70EE79DD42D6712,16,197245,3623.6,85,mirror,1,0,NA,FA,TRUE,TRUE
6,detect-chase-confidence,11/21/2023,0163CEF6924B41B5A70EE79DD42D6712,17,202185,3926.8,252,chase,1,1,NA,Hit,TRUE,TRUE
6,detect-chase-confidence,11/21/2023,0163CEF6924B41B5A70EE79DD42D6712,18,207871,4674.8,23,mirror,0,1,NA,CR,TRUE,TRUE
6,detect-chase-confidence,11/21/2023,0163CEF6924B41B5A70EE79DD42D6712,19,214489,5606.7,107,mirror,0,1,NA,CR,TRUE,TRUE
6,detect-chase-confidence,11/21/2023,0163CEF6924B41B5A70EE79DD42D6712,20,222544,7047.2,166,mirror,1,0,NA,FA,TRUE,TRUE
6,detect-chase-confidence,11/21/2023,0163CEF6924B41B5A70EE79DD42D6712,21,245761,5418.5,254,chase,1,1,3,Hit,TRUE,TRUE
6,detect-chase-confidence,11/21/2023,0163CEF6924B41B5A70EE79DD42D6712,22,253556,5263.8,152,mirror,0,1,2,CR,TRUE,TRUE
6,detect-chase-confidence,11/21/2023,0163CEF6924B41B5A70EE79DD42D6712,23,261061,5135.6,28,mirror,1,0,4,FA,TRUE,TRUE
6,detect-chase-confidence,11/21/2023,0163CEF6924B41B5A70EE79DD42D6712,24,268046,4927.9,282,chase,1,1,5,Hit,TRUE,TRUE
6,detect-chase-confidence,11/21/2023,0163CEF6924B41B5A70EE79DD42D6712,25,275540,5166.2,210,mirror,0,1,4,CR,TRUE,TRUE
6,detect-chase-confidence,11/21/2023,0163CEF6924B41B5A70EE79DD42D6712,26,282451,5155.6,17,chase,1,1,4,Hit,TRUE,TRUE
6,detect-chase-confidence,11/21/2023,0163CEF6924B41B5A70EE79DD42D6712,27,289921,5584.1,290,chase,0,0,2,Ms,TRUE,TRUE
6,detect-chase-confidence,11/21/2023,0163CEF6924B41B5A70EE79DD42D6712,28,296854,5377.5,113,mirror,1,0,3,FA,TRUE,TRUE
6,detect-chase-confidence,11/21/2023,0163CEF6924B41B5A70EE79DD42D6712,29,304951,5408.9,52,chase,1,1,3,Hit,TRUE,TRUE
6,detect-chase-confidence,11/21/2023,0163CEF6924B41B5A70EE79DD42D6712,30,314121,5152.3,264,mirror,1,0,2,FA,TRUE,TRUE
6,detect-chase-confidence,11/21/2023,0163CEF6924B41B5A70EE79DD42D6712,31,321125,5148.7,278,chase,1,1,4,Hit,TRUE,TRUE
6,detect-chase-confidence,11/21/2023,0163CEF6924B41B5A70EE79DD42D6712,32,327570,5038.2,64,chase,1,1,5,Hit,TRUE,TRUE
6,detect-chase-confidence,11/21/2023,0163CEF6924B41B5A70EE79DD42D6712,33,333904,4836.2,180,chase,1,1,5,Hit,TRUE,TRUE
6,detect-chase-confidence,11/21/2023,0163CEF6924B41B5A70EE79DD42D6712,34,340580,5285.4,285,chase,1,1,5,Hit,TRUE,TRUE
6,detect-chase-confidence,11/21/2023,0163CEF6924B41B5A70EE79DD42D6712,35,347116,5204.7,279,mirror,1,0,2,FA,TRUE,TRUE
6,detect-chase-confidence,11/21/2023,0163CEF6924B41B5A70EE79DD42D6712,36,353275,4865.8,200,mirror,1,0,4,FA,TRUE,TRUE
6,detect-chase-confidence,11/21/2023,0163CEF6924B41B5A70EE79DD42D6712,37,360920,5406,233,mirror,0,1,2,CR,TRUE,TRUE
6,detect-chase-confidence,11/21/2023,0163CEF6924B41B5A70EE79DD42D6712,38,368216,5185.6,34,chase,1,1,3,Hit,TRUE,TRUE
6,detect-chase-confidence,11/21/2023,0163CEF6924B41B5A70EE79DD42D6712,39,375169,5459.2,81,chase,0,0,2,Ms,TRUE,TRUE
6,detect-chase-confidence,11/21/2023,0163CEF6924B41B5A70EE79DD42D6712,40,381931,5241.4,117,mirror,1,0,3,FA,TRUE,TRUE
6,detect-chase-confidence,11/21/2023,0163CEF6924B41B5A70EE79DD42D6712,41,388450,5115,51,mirror,0,1,2,CR,TRUE,TRUE
6,detect-chase-confidence,11/21/2023,0163CEF6924B41B5A70EE79DD42D6712,42,394830,5059.4,121,chase,0,0,3,Ms,TRUE,TRUE
6,detect-chase-confidence,11/21/2023,0163CEF6924B41B5A70EE79DD42D6712,43,401749,5382.3,160,chase,0,0,2,Ms,TRUE,TRUE
6,detect-chase-confidence,11/21/2023,0163CEF6924B41B5A70EE79DD42D6712,44,408311,5223.7,223,chase,1,1,2,Hit,TRUE,TRUE
6,detect-chase-confidence,11/21/2023,0163CEF6924B41B5A70EE79DD42D6712,45,414674,5048.8,254,mirror,0,1,4,CR,TRUE,TRUE
6,detect-chase-confidence,11/21/2023,0163CEF6924B41B5A70EE79DD42D6712,46,421902,5419.3,225,mirror,0,1,4,CR,TRUE,TRUE
6,detect-chase-confidence,11/21/2023,0163CEF6924B41B5A70EE79DD42D6712,47,428255,4894,256,chase,1,1,5,Hit,TRUE,TRUE
6,detect-chase-confidence,11/21/2023,0163CEF6924B41B5A70EE79DD42D6712,48,434976,4865.4,7,chase,1,1,5,Hit,TRUE,TRUE
6,detect-chase-confidence,11/21/2023,0163CEF6924B41B5A70EE79DD42D6712,49,441190,4978.1,83,chase,1,1,5,Hit,TRUE,TRUE
6,detect-chase-confidence,11/21/2023,0163CEF6924B41B5A70EE79DD42D6712,50,448165,5077.1,297,mirror,0,1,4,CR,TRUE,TRUE
6,detect-chase-confidence,11/21/2023,0163CEF6924B41B5A70EE79DD42D6712,51,455485,5665.3,84,mirror,0,1,3,CR,TRUE,TRUE
6,detect-chase-confidence,11/21/2023,0163CEF6924B41B5A70EE79DD42D6712,52,462631,5710.6,199,mirror,0,1,2,CR,TRUE,TRUE
6,detect-chase-confidence,11/21/2023,0163CEF6924B41B5A70EE79DD42D6712,53,469199,5125.9,181,chase,1,1,5,Hit,TRUE,TRUE
6,detect-chase-confidence,11/21/2023,0163CEF6924B41B5A70EE79DD42D6712,54,476195,5067.9,16,mirror,1,0,4,FA,TRUE,TRUE
6,detect-chase-confidence,11/21/2023,0163CEF6924B41B5A70EE79DD42D6712,55,483370,5701.3,197,chase,1,1,3,Hit,TRUE,TRUE
6,detect-chase-confidence,11/21/2023,0163CEF6924B41B5A70EE79DD42D6712,56,490557,5549.7,7,mirror,1,0,2,FA,TRUE,TRUE
6,detect-chase-confidence,11/21/2023,0163CEF6924B41B5A70EE79DD42D6712,57,496890,5095.8,290,mirror,0,1,3,CR,TRUE,TRUE
6,detect-chase-confidence,11/21/2023,0163CEF6924B41B5A70EE79DD42D6712,58,503486,5171.7,163,mirror,0,1,5,CR,TRUE,TRUE
6,detect-chase-confidence,11/21/2023,0163CEF6924B41B5A70EE79DD42D6712,59,509946,5142,160,mirror,0,1,3,CR,TRUE,TRUE
6,detect-chase-confidence,11/21/2023,0163CEF6924B41B5A70EE79DD42D6712,60,516635,5318,66,mirror,0,1,2,CR,TRUE,TRUE
6,detect-chase-confidence,11/21/2023,0163CEF6924B41B5A70EE79DD42D6712,61,522880,4927.9,100,chase,1,1,5,Hit,TRUE,TRUE
6,detect-chase-confidence,11/21/2023,0163CEF6924B41B5A70EE79DD42D6712,62,529095,4964.2,287,chase,1,1,5,Hit,TRUE,TRUE
6,detect-chase-confidence,11/21/2023,0163CEF6924B41B5A70EE79DD42D6712,63,536314,4951.3,127,mirror,0,1,4,CR,TRUE,TRUE
6,detect-chase-confidence,11/21/2023,0163CEF6924B41B5A70EE79DD42D6712,64,542826,5132.5,147,chase,1,1,5,Hit,TRUE,TRUE
6,detect-chase-confidence,11/21/2023,0163CEF6924B41B5A70EE79DD42D6712,65,549204,5054.1,238,mirror,0,1,3,CR,TRUE,TRUE
6,detect-chase-confidence,11/21/2023,0163CEF6924B41B5A70EE79DD42D6712,66,556060,5041.5,287,mirror,0,1,3,CR,TRUE,TRUE
6,detect-chase-confidence,11/21/2023,0163CEF6924B41B5A70EE79DD42D6712,67,562454,4979,225,chase,1,1,5,Hit,TRUE,TRUE
6,detect-chase-confidence,11/21/2023,0163CEF6924B41B5A70EE79DD42D6712,68,569140,5351.6,32,mirror,1,0,2,FA,TRUE,TRUE
6,detect-chase-confidence,11/21/2023,0163CEF6924B41B5A70EE79DD42D6712,69,575559,5257.4,157,mirror,1,0,3,FA,TRUE,TRUE
6,detect-chase-confidence,11/21/2023,0163CEF6924B41B5A70EE79DD42D6712,70,581930,5112.5,157,chase,1,1,5,Hit,TRUE,TRUE
6,detect-chase-confidence,11/21/2023,0163CEF6924B41B5A70EE79DD42D6712,71,588288,5097.9,105,chase,0,0,3,Ms,TRUE,TRUE
6,detect-chase-confidence,11/21/2023,0163CEF6924B41B5A70EE79DD42D6712,72,600464,10725,139,mirror,0,1,2,CR,FALSE,TRUE
6,detect-chase-confidence,11/21/2023,0163CEF6924B41B5A70EE79DD42D6712,73,606455,4824,84,chase,1,1,5,Hit,TRUE,TRUE
6,detect-chase-confidence,11/21/2023,0163CEF6924B41B5A70EE79DD42D6712,74,613695,5227.4,100,mirror,0,1,3,CR,TRUE,TRUE
6,detect-chase-confidence,11/21/2023,0163CEF6924B41B5A70EE79DD42D6712,75,620935,5034.6,264,chase,1,1,5,Hit,TRUE,TRUE
6,detect-chase-confidence,11/21/2023,0163CEF6924B41B5A70EE79DD42D6712,76,627824,4875.5,259,chase,1,1,5,Hit,TRUE,TRUE
6,detect-chase-confidence,11/21/2023,0163CEF6924B41B5A70EE79DD42D6712,77,634675,5572.2,52,mirror,0,1,4,CR,TRUE,TRUE
6,detect-chase-confidence,11/21/2023,0163CEF6924B41B5A70EE79DD42D6712,78,641139,5013.6,72,mirror,0,1,5,CR,TRUE,TRUE
6,detect-chase-confidence,11/21/2023,0163CEF6924B41B5A70EE79DD42D6712,79,647329,4869.3,159,chase,1,1,5,Hit,TRUE,TRUE
6,detect-chase-confidence,11/21/2023,0163CEF6924B41B5A70EE79DD42D6712,80,653889,5253.5,278,mirror,0,1,4,CR,TRUE,TRUE
6,detect-chase-confidence,11/21/2023,0163CEF6924B41B5A70EE79DD42D6712,81,660609,5155.7,163,chase,1,1,4,Hit,TRUE,TRUE
6,detect-chase-confidence,11/21/2023,0163CEF6924B41B5A70EE79DD42D6712,82,666801,4912.8,101,chase,1,1,5,Hit,TRUE,TRUE
6,detect-chase-confidence,11/21/2023,0163CEF6924B41B5A70EE79DD42D6712,83,673139,5076.2,197,mirror,0,1,3,CR,TRUE,TRUE
6,detect-chase-confidence,11/21/2023,0163CEF6924B41B5A70EE79DD42D6712,84,679655,5240.2,38,mirror,1,0,4,FA,TRUE,TRUE
6,detect-chase-confidence,11/21/2023,0163CEF6924B41B5A70EE79DD42D6712,85,685984,4995,34,mirror,0,1,4,CR,TRUE,TRUE
6,detect-chase-confidence,11/21/2023,0163CEF6924B41B5A70EE79DD42D6712,86,692435,5158.1,292,chase,1,1,5,Hit,TRUE,TRUE
6,detect-chase-confidence,11/21/2023,0163CEF6924B41B5A70EE79DD42D6712,87,700794,5793.4,234,mirror,0,1,4,CR,TRUE,TRUE
6,detect-chase-confidence,11/21/2023,0163CEF6924B41B5A70EE79DD42D6712,88,708555,5882,193,chase,1,1,5,Hit,TRUE,TRUE
6,detect-chase-confidence,11/21/2023,0163CEF6924B41B5A70EE79DD42D6712,89,714864,5010.3,216,mirror,0,1,4,CR,TRUE,TRUE
6,detect-chase-confidence,11/21/2023,0163CEF6924B41B5A70EE79DD42D6712,90,721061,4942.8,27,chase,1,1,5,Hit,TRUE,TRUE
6,detect-chase-confidence,11/21/2023,0163CEF6924B41B5A70EE79DD42D6712,91,727910,5559,274,mirror,1,0,2,FA,TRUE,TRUE
6,detect-chase-confidence,11/21/2023,0163CEF6924B41B5A70EE79DD42D6712,92,734651,5041.1,297,chase,0,0,3,Ms,TRUE,TRUE
6,detect-chase-confidence,11/21/2023,0163CEF6924B41B5A70EE79DD42D6712,93,741816,5601.3,21,chase,1,1,2,Hit,TRUE,TRUE
6,detect-chase-confidence,11/21/2023,0163CEF6924B41B5A70EE79DD42D6712,94,747946,4946.4,210,chase,1,1,5,Hit,TRUE,TRUE
6,detect-chase-confidence,11/21/2023,0163CEF6924B41B5A70EE79DD42D6712,95,754381,5116.6,186,mirror,0,1,3,CR,TRUE,TRUE
6,detect-chase-confidence,11/21/2023,0163CEF6924B41B5A70EE79DD42D6712,96,760861,5253.2,66,chase,1,1,3,Hit,TRUE,TRUE
6,detect-chase-confidence,11/21/2023,0163CEF6924B41B5A70EE79DD42D6712,97,767394,5124,27,mirror,0,1,3,CR,TRUE,TRUE
6,detect-chase-confidence,11/21/2023,0163CEF6924B41B5A70EE79DD42D6712,98,773965,4966.7,159,mirror,0,1,5,CR,TRUE,TRUE
6,detect-chase-confidence,11/21/2023,0163CEF6924B41B5A70EE79DD42D6712,99,780836,5245.6,77,chase,0,0,4,Ms,TRUE,TRUE
6,detect-chase-confidence,11/21/2023,0163CEF6924B41B5A70EE79DD42D6712,100,787671,5628.2,32,chase,0,0,4,Ms,TRUE,TRUE
6,detect-chase-confidence,11/21/2023,0163CEF6924B41B5A70EE79DD42D6712,101,794286,5002.8,282,mirror,0,1,4,CR,TRUE,TRUE
6,detect-chase-confidence,11/21/2023,0163CEF6924B41B5A70EE79DD42D6712,102,800802,5182.7,104,mirror,0,1,3,CR,TRUE,TRUE
6,detect-chase-confidence,11/21/2023,0163CEF6924B41B5A70EE79DD42D6712,103,807080,5055.8,65,mirror,0,1,3,CR,TRUE,TRUE
6,detect-chase-confidence,11/21/2023,0163CEF6924B41B5A70EE79DD42D6712,104,813530,5006.3,238,chase,1,1,5,Hit,TRUE,TRUE
6,detect-chase-confidence,11/21/2023,0163CEF6924B41B5A70EE79DD42D6712,105,820191,5516.5,124,mirror,0,1,3,CR,TRUE,TRUE
6,detect-chase-confidence,11/21/2023,0163CEF6924B41B5A70EE79DD42D6712,106,826625,5185.8,21,mirror,0,1,4,CR,TRUE,TRUE
6,detect-chase-confidence,11/21/2023,0163CEF6924B41B5A70EE79DD42D6712,107,833440,5418.7,241,chase,0,0,2,Ms,TRUE,TRUE
6,detect-chase-confidence,11/21/2023,0163CEF6924B41B5A70EE79DD42D6712,108,840250,5057.6,216,chase,1,1,5,Hit,TRUE,TRUE
6,detect-chase-confidence,11/21/2023,0163CEF6924B41B5A70EE79DD42D6712,109,847506,6038.1,147,mirror,0,1,2,CR,TRUE,TRUE
6,detect-chase-confidence,11/21/2023,0163CEF6924B41B5A70EE79DD42D6712,110,854026,5220.9,38,chase,0,0,3,Ms,TRUE,TRUE
6,detect-chase-confidence,11/21/2023,0163CEF6924B41B5A70EE79DD42D6712,111,860325,4919.7,65,chase,1,1,5,Hit,TRUE,TRUE
6,detect-chase-confidence,11/21/2023,0163CEF6924B41B5A70EE79DD42D6712,112,867056,5434.5,93,mirror,0,1,4,CR,TRUE,TRUE
6,detect-chase-confidence,11/21/2023,0163CEF6924B41B5A70EE79DD42D6712,113,874040,4941,228,chase,1,1,4,Hit,TRUE,TRUE
6,detect-chase-confidence,11/21/2023,0163CEF6924B41B5A70EE79DD42D6712,114,880700,5281.6,68,mirror,0,1,3,CR,TRUE,TRUE
6,detect-chase-confidence,11/21/2023,0163CEF6924B41B5A70EE79DD42D6712,115,887704,5278.9,193,mirror,0,1,2,CR,TRUE,TRUE
6,detect-chase-confidence,11/21/2023,0163CEF6924B41B5A70EE79DD42D6712,116,893816,4844.5,16,chase,1,1,5,Hit,TRUE,TRUE
6,detect-chase-confidence,11/21/2023,0163CEF6924B41B5A70EE79DD42D6712,117,901070,5838.4,81,mirror,0,1,2,CR,TRUE,TRUE
6,detect-chase-confidence,11/21/2023,0163CEF6924B41B5A70EE79DD42D6712,118,907241,4925.4,292,mirror,0,1,5,CR,TRUE,TRUE
6,detect-chase-confidence,11/21/2023,0163CEF6924B41B5A70EE79DD42D6712,119,913925,5361.1,17,mirror,0,1,2,CR,TRUE,TRUE
6,detect-chase-confidence,11/21/2023,0163CEF6924B41B5A70EE79DD42D6712,120,920255,5060,108,mirror,0,1,4,CR,TRUE,TRUE
6,detect-chase-confidence,11/21/2023,0163CEF6924B41B5A70EE79DD42D6712,121,927185,5030.1,89,mirror,0,1,3,CR,TRUE,TRUE
6,detect-chase-confidence,11/21/2023,0163CEF6924B41B5A70EE79DD42D6712,122,934575,5236.5,93,chase,1,1,4,Hit,TRUE,TRUE
6,detect-chase-confidence,11/21/2023,0163CEF6924B41B5A70EE79DD42D6712,123,941110,5314.8,51,chase,0,0,3,Ms,TRUE,TRUE
6,detect-chase-confidence,11/21/2023,0163CEF6924B41B5A70EE79DD42D6712,124,947619,5111.6,68,chase,1,1,5,Hit,TRUE,TRUE
6,detect-chase-confidence,11/21/2023,0163CEF6924B41B5A70EE79DD42D6712,125,955805,5239,233,chase,1,1,4,Hit,TRUE,TRUE
6,detect-chase-confidence,11/21/2023,0163CEF6924B41B5A70EE79DD42D6712,126,962181,4931.9,78,chase,1,1,5,Hit,TRUE,TRUE
6,detect-chase-confidence,11/21/2023,0163CEF6924B41B5A70EE79DD42D6712,127,970230,6489.7,83,mirror,0,1,3,CR,TRUE,TRUE
6,detect-chase-confidence,11/21/2023,0163CEF6924B41B5A70EE79DD42D6712,128,979735,5666.9,279,chase,1,1,4,Hit,TRUE,TRUE
6,detect-chase-confidence,11/21/2023,0163CEF6924B41B5A70EE79DD42D6712,129,987570,6443.1,219,mirror,1,0,2,FA,TRUE,TRUE
6,detect-chase-confidence,11/21/2023,0163CEF6924B41B5A70EE79DD42D6712,130,993914,4978.9,117,chase,1,1,5,Hit,TRUE,TRUE
6,detect-chase-confidence,11/21/2023,0163CEF6924B41B5A70EE79DD42D6712,131,1000456,5154.6,200,chase,1,1,5,Hit,TRUE,TRUE
6,detect-chase-confidence,11/21/2023,0163CEF6924B41B5A70EE79DD42D6712,132,1006889,4931.9,186,chase,1,1,5,Hit,TRUE,TRUE
6,detect-chase-confidence,11/21/2023,0163CEF6924B41B5A70EE79DD42D6712,133,1013690,5436.4,108,chase,0,0,2,Ms,TRUE,TRUE
6,detect-chase-confidence,11/21/2023,0163CEF6924B41B5A70EE79DD42D6712,134,1022086,5988.4,274,chase,0,0,4,Ms,TRUE,TRUE
6,detect-chase-confidence,11/21/2023,0163CEF6924B41B5A70EE79DD42D6712,135,1028886,5454.4,219,chase,0,0,5,Ms,TRUE,TRUE
6,detect-chase-confidence,11/21/2023,0163CEF6924B41B5A70EE79DD42D6712,136,1035850,5604.4,265,mirror,0,1,2,CR,TRUE,TRUE
6,detect-chase-confidence,11/21/2023,0163CEF6924B41B5A70EE79DD42D6712,137,1042036,4806.8,72,chase,1,1,5,Hit,TRUE,TRUE
6,detect-chase-confidence,11/21/2023,0163CEF6924B41B5A70EE79DD42D6712,138,1048680,5010.1,266,chase,1,1,4,Hit,TRUE,TRUE
6,detect-chase-confidence,11/21/2023,0163CEF6924B41B5A70EE79DD42D6712,139,1055100,5132,78,mirror,0,1,3,CR,TRUE,TRUE
6,detect-chase-confidence,11/21/2023,0163CEF6924B41B5A70EE79DD42D6712,140,1062184,5270.9,181,mirror,1,0,2,FA,TRUE,TRUE
6,detect-chase-confidence,11/21/2023,0163CEF6924B41B5A70EE79DD42D6712,141,1068656,4979.5,256,mirror,0,1,4,CR,TRUE,TRUE
6,detect-chase-confidence,11/21/2023,0163CEF6924B41B5A70EE79DD42D6712,142,1075084,5052.9,234,chase,1,1,5,Hit,TRUE,TRUE
6,detect-chase-confidence,11/21/2023,0163CEF6924B41B5A70EE79DD42D6712,143,1081935,5479.1,204,mirror,0,1,3,CR,TRUE,TRUE
6,detect-chase-confidence,11/21/2023,0163CEF6924B41B5A70EE79DD42D6712,144,1088730,5232.5,284,mirror,0,1,4,CR,TRUE,TRUE
6,detect-chase-confidence,11/21/2023,0163CEF6924B41B5A70EE79DD42D6712,145,1095785,5843.3,104,chase,1,1,3,Hit,TRUE,TRUE
6,detect-chase-confidence,11/21/2023,0163CEF6924B41B5A70EE79DD42D6712,146,1101939,4883.8,63,chase,1,1,5,Hit,TRUE,TRUE
6,detect-chase-confidence,11/21/2023,0163CEF6924B41B5A70EE79DD42D6712,147,1108299,5082.5,121,mirror,0,1,4,CR,TRUE,TRUE
6,detect-chase-confidence,11/21/2023,0163CEF6924B41B5A70EE79DD42D6712,148,1115154,5010.5,285,mirror,0,1,3,CR,TRUE,TRUE
6,detect-chase-confidence,11/21/2023,0163CEF6924B41B5A70EE79DD42D6712,149,1121734,4971.9,284,chase,1,1,4,Hit,TRUE,TRUE
6,detect-chase-confidence,11/21/2023,0163CEF6924B41B5A70EE79DD42D6712,150,1127999,4928.2,36,chase,1,1,5,Hit,TRUE,TRUE
6,detect-chase-confidence,11/21/2023,0163CEF6924B41B5A70EE79DD42D6712,151,1134875,5515,154,chase,0,0,3,Ms,TRUE,TRUE
6,detect-chase-confidence,11/21/2023,0163CEF6924B41B5A70EE79DD42D6712,152,1141018,4954.2,89,chase,1,1,5,Hit,TRUE,TRUE
6,detect-chase-confidence,11/21/2023,0163CEF6924B41B5A70EE79DD42D6712,153,1147617,5269,180,mirror,0,1,3,CR,TRUE,TRUE
6,detect-chase-confidence,11/21/2023,0163CEF6924B41B5A70EE79DD42D6712,154,1154376,4978.9,124,chase,1,1,5,Hit,TRUE,TRUE
6,detect-chase-confidence,11/21/2023,0163CEF6924B41B5A70EE79DD42D6712,155,1161457,5567.7,190,chase,1,1,3,Hit,TRUE,TRUE
6,detect-chase-confidence,11/21/2023,0163CEF6924B41B5A70EE79DD42D6712,156,1168655,5478.5,12,mirror,0,1,3,CR,TRUE,TRUE
6,detect-chase-confidence,11/21/2023,0163CEF6924B41B5A70EE79DD42D6712,157,1178216,7660.8,152,chase,0,0,3,Ms,TRUE,TRUE
6,detect-chase-confidence,11/21/2023,0163CEF6924B41B5A70EE79DD42D6712,158,1185550,5011.6,58,chase,1,1,4,Hit,TRUE,TRUE
6,detect-chase-confidence,11/21/2023,0163CEF6924B41B5A70EE79DD42D6712,159,1192180,5212.1,296,chase,1,1,4,Hit,TRUE,TRUE
6,detect-chase-confidence,11/21/2023,0163CEF6924B41B5A70EE79DD42D6712,160,1198399,4910.7,266,mirror,0,1,4,CR,TRUE,TRUE
6,detect-chase-confidence,11/21/2023,0163CEF6924B41B5A70EE79DD42D6712,161,1207235,7247.8,190,mirror,0,1,4,CR,TRUE,TRUE
6,detect-chase-confidence,11/21/2023,0163CEF6924B41B5A70EE79DD42D6712,162,1213669,4992.3,28,chase,1,1,5,Hit,TRUE,TRUE
6,detect-chase-confidence,11/21/2023,0163CEF6924B41B5A70EE79DD42D6712,163,1220026,5069.7,144,mirror,0,1,3,CR,TRUE,TRUE
6,detect-chase-confidence,11/21/2023,0163CEF6924B41B5A70EE79DD42D6712,164,1226935,5564.5,63,mirror,0,1,3,CR,TRUE,TRUE
6,detect-chase-confidence,11/21/2023,0163CEF6924B41B5A70EE79DD42D6712,165,1233600,5190.9,265,chase,0,0,2,Ms,TRUE,TRUE
6,detect-chase-confidence,11/21/2023,0163CEF6924B41B5A70EE79DD42D6712,166,1240484,5656.1,211,chase,1,1,5,Hit,TRUE,TRUE
6,detect-chase-confidence,11/21/2023,0163CEF6924B41B5A70EE79DD42D6712,167,1247355,5422.9,154,mirror,0,1,3,CR,TRUE,TRUE
6,detect-chase-confidence,11/21/2023,0163CEF6924B41B5A70EE79DD42D6712,168,1254178,5568.1,184,mirror,0,1,3,CR,TRUE,TRUE
6,detect-chase-confidence,11/21/2023,0163CEF6924B41B5A70EE79DD42D6712,169,1261660,5258.3,64,mirror,0,1,3,CR,TRUE,TRUE
6,detect-chase-confidence,11/21/2023,0163CEF6924B41B5A70EE79DD42D6712,170,1268494,5314.5,8,mirror,0,1,3,CR,TRUE,TRUE
6,detect-chase-confidence,11/21/2023,0163CEF6924B41B5A70EE79DD42D6712,171,1276766,6106.3,70,mirror,1,0,1,FA,TRUE,TRUE
6,detect-chase-confidence,11/21/2023,0163CEF6924B41B5A70EE79DD42D6712,172,1284144,5138,211,mirror,0,1,4,CR,TRUE,TRUE
6,detect-chase-confidence,11/21/2023,0163CEF6924B41B5A70EE79DD42D6712,173,1291380,5953.6,82,chase,0,0,3,Ms,TRUE,TRUE
6,detect-chase-confidence,11/21/2023,0163CEF6924B41B5A70EE79DD42D6712,174,1297663,4907.4,144,chase,1,1,5,Hit,TRUE,TRUE
6,detect-chase-confidence,11/21/2023,0163CEF6924B41B5A70EE79DD42D6712,175,1305189,6059.2,58,mirror,0,1,3,CR,TRUE,TRUE
6,detect-chase-confidence,11/21/2023,0163CEF6924B41B5A70EE79DD42D6712,176,1312529,5467.2,48,mirror,0,1,4,CR,TRUE,TRUE
6,detect-chase-confidence,11/21/2023,0163CEF6924B41B5A70EE79DD42D6712,177,1319394,5479.6,12,chase,0,0,4,Ms,TRUE,TRUE
6,detect-chase-confidence,11/21/2023,0163CEF6924B41B5A70EE79DD42D6712,178,1326275,5445.9,70,chase,1,1,5,Hit,TRUE,TRUE
6,detect-chase-confidence,11/21/2023,0163CEF6924B41B5A70EE79DD42D6712,179,1333425,5162.8,101,mirror,0,1,3,CR,TRUE,TRUE
6,detect-chase-confidence,11/21/2023,0163CEF6924B41B5A70EE79DD42D6712,180,1340970,5574.8,296,mirror,0,1,2,CR,TRUE,TRUE
6,detect-chase-confidence,11/21/2023,0163CEF6924B41B5A70EE79DD42D6712,181,1347250,5058.2,223,mirror,0,1,4,CR,TRUE,TRUE
6,detect-chase-confidence,11/21/2023,0163CEF6924B41B5A70EE79DD42D6712,182,1353869,5241.1,127,chase,1,1,4,Hit,TRUE,TRUE
6,detect-chase-confidence,11/21/2023,0163CEF6924B41B5A70EE79DD42D6712,183,1360839,5601.9,241,mirror,0,1,3,CR,TRUE,TRUE
6,detect-chase-confidence,11/21/2023,0163CEF6924B41B5A70EE79DD42D6712,184,1367625,5290.2,139,chase,1,1,5,Hit,TRUE,TRUE
6,detect-chase-confidence,11/21/2023,0163CEF6924B41B5A70EE79DD42D6712,185,1374085,4981.5,184,chase,1,1,5,Hit,TRUE,TRUE
6,detect-chase-confidence,11/21/2023,0163CEF6924B41B5A70EE79DD42D6712,186,1380933,5409.3,288,mirror,0,1,2,CR,TRUE,TRUE
6,detect-chase-confidence,11/21/2023,0163CEF6924B41B5A70EE79DD42D6712,187,1387556,5285.6,228,mirror,0,1,3,CR,TRUE,TRUE
6,detect-chase-confidence,11/21/2023,0163CEF6924B41B5A70EE79DD42D6712,188,1394185,5015.8,259,mirror,0,1,4,CR,TRUE,TRUE
6,detect-chase-confidence,11/21/2023,0163CEF6924B41B5A70EE79DD42D6712,189,1400676,4979.3,199,chase,1,1,4,Hit,TRUE,TRUE
6,detect-chase-confidence,11/21/2023,0163CEF6924B41B5A70EE79DD42D6712,190,1407389,5198.4,77,mirror,0,1,4,CR,TRUE,TRUE
6,detect-chase-confidence,11/21/2023,0163CEF6924B41B5A70EE79DD42D6712,191,1414571,5685.5,135,mirror,1,0,3,FA,TRUE,TRUE
6,detect-chase-confidence,11/21/2023,0163CEF6924B41B5A70EE79DD42D6712,192,1421364,5253.9,36,mirror,0,1,4,CR,TRUE,TRUE
6,detect-chase-confidence,11/21/2023,0163CEF6924B41B5A70EE79DD42D6712,193,1427784,5024.5,8,chase,1,1,5,Hit,TRUE,TRUE
6,detect-chase-confidence,11/21/2023,0163CEF6924B41B5A70EE79DD42D6712,194,1434646,5417.4,105,mirror,1,0,2,FA,TRUE,TRUE
6,detect-chase-confidence,11/21/2023,0163CEF6924B41B5A70EE79DD42D6712,195,1440989,5094.8,204,chase,1,1,5,Hit,TRUE,TRUE
6,detect-chase-confidence,11/21/2023,0163CEF6924B41B5A70EE79DD42D6712,196,1447480,4952,82,mirror,1,0,4,FA,TRUE,TRUE
6,detect-chase-confidence,11/21/2023,0163CEF6924B41B5A70EE79DD42D6712,197,1453807,4933.9,288,chase,1,1,5,Hit,TRUE,TRUE
6,detect-chase-confidence,11/21/2023,0163CEF6924B41B5A70EE79DD42D6712,198,1460025,4927,48,chase,1,1,5,Hit,TRUE,TRUE
6,detect-chase-confidence,11/21/2023,0163CEF6924B41B5A70EE79DD42D6712,199,1466300,4849.4,113,chase,1,1,5,Hit,TRUE,TRUE
6,detect-chase-confidence,11/21/2023,0163CEF6924B41B5A70EE79DD42D6712,200,1472609,4914,135,chase,1,1,4,Hit,TRUE,TRUE
6,detect-chase-confidence,11/21/2023,0182F2ECC053441689E86EA2EA3571A6,1,130759,4117,103,chase,1,1,NA,Hit,TRUE,FALSE
6,detect-chase-confidence,11/21/2023,0182F2ECC053441689E86EA2EA3571A6,2,133047,1252,185,chase,1,1,NA,Hit,TRUE,FALSE
6,detect-chase-confidence,11/21/2023,0182F2ECC053441689E86EA2EA3571A6,3,134756,671.6,287,mirror,1,0,NA,FA,TRUE,FALSE
6,detect-chase-confidence,11/21/2023,0182F2ECC053441689E86EA2EA3571A6,4,137307,1521.5,280,chase,1,1,NA,Hit,TRUE,FALSE
6,detect-chase-confidence,11/21/2023,0182F2ECC053441689E86EA2EA3571A6,5,139756,1420.9,28,mirror,1,0,NA,FA,TRUE,FALSE
6,detect-chase-confidence,11/21/2023,0182F2ECC053441689E86EA2EA3571A6,6,143781,2991,81,mirror,1,0,NA,FA,TRUE,FALSE
6,detect-chase-confidence,11/21/2023,0182F2ECC053441689E86EA2EA3571A6,7,165538,20708.9,287,chase,1,1,NA,Hit,FALSE,FALSE
6,detect-chase-confidence,11/21/2023,0182F2ECC053441689E86EA2EA3571A6,8,174705,8127.6,280,mirror,1,0,NA,FA,FALSE,FALSE
6,detect-chase-confidence,11/21/2023,0182F2ECC053441689E86EA2EA3571A6,9,178684,2926.5,81,chase,0,0,NA,Ms,TRUE,FALSE
6,detect-chase-confidence,11/21/2023,0182F2ECC053441689E86EA2EA3571A6,10,181335,1619.3,103,mirror,1,0,NA,FA,TRUE,FALSE
6,detect-chase-confidence,11/21/2023,0182F2ECC053441689E86EA2EA3571A6,11,184702,2330.5,241,mirror,0,1,NA,CR,TRUE,FALSE
6,detect-chase-confidence,11/21/2023,0182F2ECC053441689E86EA2EA3571A6,12,189273,3544.3,28,chase,0,0,NA,Ms,TRUE,FALSE
6,detect-chase-confidence,11/21/2023,0182F2ECC053441689E86EA2EA3571A6,13,192117,1798.3,185,mirror,1,0,NA,FA,TRUE,FALSE
6,detect-chase-confidence,11/21/2023,0182F2ECC053441689E86EA2EA3571A6,14,200836,7684.6,241,chase,1,1,NA,Hit,TRUE,FALSE
6,detect-chase-confidence,11/21/2023,0182F2ECC053441689E86EA2EA3571A6,15,204113,2242.8,171,mirror,0,1,NA,CR,TRUE,FALSE
6,detect-chase-confidence,11/21/2023,0182F2ECC053441689E86EA2EA3571A6,16,208710,3563.3,208,chase,0,0,NA,Ms,TRUE,FALSE
6,detect-chase-confidence,11/21/2023,0182F2ECC053441689E86EA2EA3571A6,17,212970,3227.3,171,chase,1,1,NA,Hit,TRUE,FALSE
6,detect-chase-confidence,11/21/2023,0182F2ECC053441689E86EA2EA3571A6,18,215842,1846.7,208,mirror,1,0,NA,FA,TRUE,FALSE
6,detect-chase-confidence,11/21/2023,0182F2ECC053441689E86EA2EA3571A6,19,218610,1729.2,250,chase,1,1,NA,Hit,TRUE,FALSE
6,detect-chase-confidence,11/21/2023,0182F2ECC053441689E86EA2EA3571A6,20,222084,2444.6,250,mirror,1,0,NA,FA,TRUE,FALSE
6,detect-chase-confidence,11/21/2023,0182F2ECC053441689E86EA2EA3571A6,21,254668,2411.4,84,mirror,1,0,1,FA,TRUE,FALSE
6,detect-chase-confidence,11/21/2023,0182F2ECC053441689E86EA2EA3571A6,22,267228,4243.1,106,mirror,1,0,1,FA,TRUE,FALSE
6,detect-chase-confidence,11/21/2023,0182F2ECC053441689E86EA2EA3571A6,23,278235,4357,199,mirror,1,0,2,FA,TRUE,FALSE
6,detect-chase-confidence,11/21/2023,0182F2ECC053441689E86EA2EA3571A6,24,284157,1870.3,197,chase,0,0,1,Ms,TRUE,FALSE
6,detect-chase-confidence,11/21/2023,0182F2ECC053441689E86EA2EA3571A6,25,293774,4739.1,207,mirror,1,0,1,FA,TRUE,FALSE
6,detect-chase-confidence,11/21/2023,0182F2ECC053441689E86EA2EA3571A6,26,301198,3659.9,193,chase,0,0,1,Ms,TRUE,FALSE
6,detect-chase-confidence,11/21/2023,0182F2ECC053441689E86EA2EA3571A6,27,306991,1953.7,98,mirror,1,0,4,FA,TRUE,FALSE
6,detect-chase-confidence,11/21/2023,0182F2ECC053441689E86EA2EA3571A6,28,312704,3186.3,135,mirror,1,0,3,FA,TRUE,FALSE
6,detect-chase-confidence,11/21/2023,0182F2ECC053441689E86EA2EA3571A6,29,319725,4353.5,122,chase,1,1,3,Hit,TRUE,FALSE
6,detect-chase-confidence,11/21/2023,0182F2ECC053441689E86EA2EA3571A6,30,325365,2956.3,80,chase,0,0,1,Ms,TRUE,FALSE
6,detect-chase-confidence,11/21/2023,0182F2ECC053441689E86EA2EA3571A6,31,328569,541.5,203,mirror,0,1,1,CR,TRUE,FALSE
6,detect-chase-confidence,11/21/2023,0182F2ECC053441689E86EA2EA3571A6,32,333735,2547.3,177,mirror,1,0,2,FA,TRUE,FALSE
6,detect-chase-confidence,11/21/2023,0182F2ECC053441689E86EA2EA3571A6,33,339923,3584.7,170,mirror,0,1,1,CR,TRUE,FALSE
6,detect-chase-confidence,11/21/2023,0182F2ECC053441689E86EA2EA3571A6,34,345288,3401.4,155,mirror,1,0,3,FA,TRUE,FALSE
6,detect-chase-confidence,11/21/2023,0182F2ECC053441689E86EA2EA3571A6,35,350368,2997.1,110,mirror,1,0,3,FA,TRUE,FALSE
6,detect-chase-confidence,11/21/2023,0182F2ECC053441689E86EA2EA3571A6,36,356277,3725.9,183,chase,1,1,3,Hit,TRUE,FALSE
6,detect-chase-confidence,11/21/2023,0182F2ECC053441689E86EA2EA3571A6,37,360378,2459.6,243,chase,1,1,3,Hit,TRUE,FALSE
6,detect-chase-confidence,11/21/2023,0182F2ECC053441689E86EA2EA3571A6,38,364977,2537.3,256,chase,0,0,1,Ms,TRUE,FALSE
6,detect-chase-confidence,11/21/2023,0182F2ECC053441689E86EA2EA3571A6,39,375629,7455.4,69,mirror,0,1,1,CR,TRUE,FALSE
6,detect-chase-confidence,11/21/2023,0182F2ECC053441689E86EA2EA3571A6,40,385027,6747.7,267,chase,0,0,1,Ms,TRUE,FALSE
6,detect-chase-confidence,11/21/2023,0182F2ECC053441689E86EA2EA3571A6,41,391672,4503.1,136,chase,1,1,2,Hit,TRUE,FALSE
6,detect-chase-confidence,11/21/2023,0182F2ECC053441689E86EA2EA3571A6,42,400990,7433.5,243,mirror,0,1,1,CR,TRUE,FALSE
6,detect-chase-confidence,11/21/2023,0182F2ECC053441689E86EA2EA3571A6,43,412237,5587.4,274,mirror,0,1,1,CR,TRUE,FALSE
6,detect-chase-confidence,11/21/2023,0182F2ECC053441689E86EA2EA3571A6,44,420162,6221.2,173,chase,1,1,2,Hit,TRUE,FALSE
6,detect-chase-confidence,11/21/2023,0182F2ECC053441689E86EA2EA3571A6,45,424179,2750.6,50,chase,1,1,2,Hit,TRUE,FALSE
6,detect-chase-confidence,11/21/2023,0182F2ECC053441689E86EA2EA3571A6,46,428427,2165.4,46,chase,1,1,4,Hit,TRUE,FALSE
6,detect-chase-confidence,11/21/2023,0182F2ECC053441689E86EA2EA3571A6,47,436481,6302.7,247,mirror,1,0,1,FA,TRUE,FALSE
6,detect-chase-confidence,11/21/2023,0182F2ECC053441689E86EA2EA3571A6,48,441446,2652,118,chase,1,1,4,Hit,TRUE,FALSE
6,detect-chase-confidence,11/21/2023,0182F2ECC053441689E86EA2EA3571A6,49,446483,2689,252,mirror,1,0,3,FA,TRUE,FALSE
6,detect-chase-confidence,11/21/2023,0182F2ECC053441689E86EA2EA3571A6,50,455676,7314.9,254,chase,0,0,1,Ms,TRUE,FALSE
6,detect-chase-confidence,11/21/2023,0182F2ECC053441689E86EA2EA3571A6,51,459427,2366.3,135,chase,0,0,1,Ms,TRUE,FALSE
6,detect-chase-confidence,11/21/2023,0182F2ECC053441689E86EA2EA3571A6,52,463188,2360.2,199,chase,1,1,4,Hit,TRUE,FALSE
6,detect-chase-confidence,11/21/2023,0182F2ECC053441689E86EA2EA3571A6,53,468024,2456.8,106,chase,1,1,3,Hit,TRUE,FALSE
6,detect-chase-confidence,11/21/2023,0182F2ECC053441689E86EA2EA3571A6,54,473588,3583.3,177,chase,1,1,1,Hit,TRUE,FALSE
6,detect-chase-confidence,11/21/2023,0182F2ECC053441689E86EA2EA3571A6,55,481488,5450.6,45,chase,1,1,2,Hit,TRUE,FALSE
6,detect-chase-confidence,11/21/2023,0182F2ECC053441689E86EA2EA3571A6,56,487126,3723.5,2,mirror,0,1,1,CR,TRUE,FALSE
6,detect-chase-confidence,11/21/2023,0182F2ECC053441689E86EA2EA3571A6,57,491594,2276,283,mirror,1,0,2,FA,TRUE,FALSE
6,detect-chase-confidence,11/21/2023,0182F2ECC053441689E86EA2EA3571A6,58,501247,7859.5,298,chase,0,0,1,Ms,TRUE,FALSE
6,detect-chase-confidence,11/21/2023,0182F2ECC053441689E86EA2EA3571A6,59,506693,3973.1,248,chase,1,1,3,Hit,TRUE,FALSE
6,detect-chase-confidence,11/21/2023,0182F2ECC053441689E86EA2EA3571A6,60,515006,5987.2,110,chase,0,0,2,Ms,TRUE,FALSE
6,detect-chase-confidence,11/21/2023,0182F2ECC053441689E86EA2EA3571A6,61,521659,4664.6,109,mirror,0,1,1,CR,TRUE,FALSE
6,detect-chase-confidence,11/21/2023,0182F2ECC053441689E86EA2EA3571A6,62,527629,4642.9,45,mirror,1,0,3,FA,TRUE,FALSE
6,detect-chase-confidence,11/21/2023,0182F2ECC053441689E86EA2EA3571A6,63,536008,5552.6,61,mirror,0,1,4,CR,TRUE,FALSE
6,detect-chase-confidence,11/21/2023,0182F2ECC053441689E86EA2EA3571A6,64,544514,6502,30,chase,0,0,2,Ms,TRUE,FALSE
6,detect-chase-confidence,11/21/2023,0182F2ECC053441689E86EA2EA3571A6,65,551371,5417.7,34,chase,0,0,2,Ms,TRUE,FALSE
6,detect-chase-confidence,11/21/2023,0182F2ECC053441689E86EA2EA3571A6,66,559089,5952.4,207,chase,0,0,2,Ms,TRUE,FALSE
6,detect-chase-confidence,11/21/2023,0182F2ECC053441689E86EA2EA3571A6,67,566490,5520.2,193,mirror,0,1,2,CR,TRUE,FALSE
6,detect-chase-confidence,11/21/2023,0182F2ECC053441689E86EA2EA3571A6,68,571669,3450.7,229,mirror,1,0,4,FA,TRUE,FALSE
6,detect-chase-confidence,11/21/2023,0182F2ECC053441689E86EA2EA3571A6,69,577504,3435.4,276,mirror,1,0,4,FA,TRUE,FALSE
6,detect-chase-confidence,11/21/2023,0182F2ECC053441689E86EA2EA3571A6,70,582890,3151.3,212,chase,1,1,3,Hit,TRUE,FALSE
6,detect-chase-confidence,11/21/2023,0182F2ECC053441689E86EA2EA3571A6,71,588740,3969.8,186,chase,1,1,2,Hit,TRUE,FALSE
6,detect-chase-confidence,11/21/2023,0182F2ECC053441689E86EA2EA3571A6,72,595138,2049.1,11,chase,0,0,1,Ms,TRUE,FALSE
6,detect-chase-confidence,11/21/2023,0182F2ECC053441689E86EA2EA3571A6,73,601830,4392.5,259,mirror,1,0,2,FA,TRUE,FALSE
6,detect-chase-confidence,11/21/2023,0182F2ECC053441689E86EA2EA3571A6,74,607565,3763.2,11,mirror,0,1,1,CR,TRUE,FALSE
6,detect-chase-confidence,11/21/2023,0182F2ECC053441689E86EA2EA3571A6,75,612422,3402.3,209,mirror,1,0,3,FA,TRUE,FALSE
6,detect-chase-confidence,11/21/2023,0182F2ECC053441689E86EA2EA3571A6,76,618826,4586.5,52,mirror,1,0,3,FA,TRUE,FALSE
6,detect-chase-confidence,11/21/2023,0182F2ECC053441689E86EA2EA3571A6,77,626290,5636.9,37,mirror,0,1,3,CR,TRUE,FALSE
6,detect-chase-confidence,11/21/2023,0182F2ECC053441689E86EA2EA3571A6,78,629646,1660.4,206,mirror,1,0,2,FA,TRUE,FALSE
6,detect-chase-confidence,11/21/2023,0182F2ECC053441689E86EA2EA3571A6,79,635696,3058.2,65,mirror,1,0,2,FA,TRUE,FALSE
6,detect-chase-confidence,11/21/2023,0182F2ECC053441689E86EA2EA3571A6,80,643515,5543.6,120,chase,0,0,4,Ms,TRUE,FALSE
6,detect-chase-confidence,11/21/2023,0182F2ECC053441689E86EA2EA3571A6,81,652533,6562.1,30,mirror,0,1,3,CR,TRUE,FALSE
6,detect-chase-confidence,11/21/2023,0182F2ECC053441689E86EA2EA3571A6,82,662925,5719.8,143,mirror,0,1,2,CR,TRUE,FALSE
6,detect-chase-confidence,11/21/2023,0182F2ECC053441689E86EA2EA3571A6,83,665104,595.9,102,mirror,0,1,4,CR,TRUE,FALSE
6,detect-chase-confidence,11/21/2023,0182F2ECC053441689E86EA2EA3571A6,84,673819,4586.2,48,chase,1,1,4,Hit,TRUE,FALSE
6,detect-chase-confidence,11/21/2023,0182F2ECC053441689E86EA2EA3571A6,85,677329,1225.2,98,chase,1,1,2,Hit,TRUE,FALSE
6,detect-chase-confidence,11/21/2023,0182F2ECC053441689E86EA2EA3571A6,86,681530,2075.9,93,chase,1,1,2,Hit,TRUE,FALSE
6,detect-chase-confidence,11/21/2023,0182F2ECC053441689E86EA2EA3571A6,87,687812,3790.5,27,mirror,1,0,1,FA,TRUE,FALSE
6,detect-chase-confidence,11/21/2023,0182F2ECC053441689E86EA2EA3571A6,88,693350,3095,54,chase,0,0,1,Ms,TRUE,FALSE
6,detect-chase-confidence,11/21/2023,0182F2ECC053441689E86EA2EA3571A6,89,700959,5473.7,34,mirror,0,1,1,CR,TRUE,FALSE
6,detect-chase-confidence,11/21/2023,0182F2ECC053441689E86EA2EA3571A6,90,705014,2177.4,6,chase,1,1,1,Hit,TRUE,FALSE
6,detect-chase-confidence,11/21/2023,0182F2ECC053441689E86EA2EA3571A6,91,710375,3350.7,176,mirror,1,0,3,FA,TRUE,FALSE
6,detect-chase-confidence,11/21/2023,0182F2ECC053441689E86EA2EA3571A6,92,716128,3673.7,242,mirror,1,0,3,FA,TRUE,FALSE
6,detect-chase-confidence,11/21/2023,0182F2ECC053441689E86EA2EA3571A6,93,722242,4282.7,268,mirror,0,1,1,CR,TRUE,FALSE
6,detect-chase-confidence,11/21/2023,0182F2ECC053441689E86EA2EA3571A6,94,726764,2980.2,76,chase,0,0,3,Ms,TRUE,FALSE
6,detect-chase-confidence,11/21/2023,0182F2ECC053441689E86EA2EA3571A6,95,732615,3887.7,52,chase,1,1,1,Hit,TRUE,FALSE
6,detect-chase-confidence,11/21/2023,0182F2ECC053441689E86EA2EA3571A6,96,737924,2502.6,234,chase,0,0,5,Ms,TRUE,FALSE
6,detect-chase-confidence,11/21/2023,0182F2ECC053441689E86EA2EA3571A6,97,743778,2834.4,78,chase,1,1,2,Hit,TRUE,FALSE
6,detect-chase-confidence,11/21/2023,0182F2ECC053441689E86EA2EA3571A6,98,748895,2586.8,57,chase,1,1,3,Hit,TRUE,FALSE
6,detect-chase-confidence,11/21/2023,0182F2ECC053441689E86EA2EA3571A6,99,754296,2964.6,220,mirror,1,0,2,FA,TRUE,FALSE
6,detect-chase-confidence,11/21/2023,0182F2ECC053441689E86EA2EA3571A6,100,757908,1755.7,83,chase,0,0,3,Ms,TRUE,FALSE
6,detect-chase-confidence,11/21/2023,0182F2ECC053441689E86EA2EA3571A6,101,764484,3659.3,198,chase,1,1,3,Hit,TRUE,FALSE
6,detect-chase-confidence,11/21/2023,0182F2ECC053441689E86EA2EA3571A6,102,771034,4559,259,chase,0,0,1,Ms,TRUE,FALSE
6,detect-chase-confidence,11/21/2023,0182F2ECC053441689E86EA2EA3571A6,103,774474,2171.4,95,chase,1,1,2,Hit,TRUE,FALSE
6,detect-chase-confidence,11/21/2023,0182F2ECC053441689E86EA2EA3571A6,104,781062,4036.8,213,chase,0,0,1,Ms,TRUE,FALSE
6,detect-chase-confidence,11/21/2023,0182F2ECC053441689E86EA2EA3571A6,105,784483,1965.2,234,mirror,1,0,4,FA,TRUE,FALSE
6,detect-chase-confidence,11/21/2023,0182F2ECC053441689E86EA2EA3571A6,106,789354,2518,170,chase,1,1,4,Hit,TRUE,FALSE
6,detect-chase-confidence,11/21/2023,0182F2ECC053441689E86EA2EA3571A6,107,795918,5083.8,136,mirror,0,1,2,CR,TRUE,FALSE
6,detect-chase-confidence,11/21/2023,0182F2ECC053441689E86EA2EA3571A6,108,798639,1117.7,274,chase,1,1,2,Hit,TRUE,FALSE
6,detect-chase-confidence,11/21/2023,0182F2ECC053441689E86EA2EA3571A6,109,805020,3801.3,242,chase,1,1,1,Hit,TRUE,FALSE
6,detect-chase-confidence,11/21/2023,0182F2ECC053441689E86EA2EA3571A6,110,811756,2772.5,268,chase,0,0,3,Ms,TRUE,FALSE
6,detect-chase-confidence,11/21/2023,0182F2ECC053441689E86EA2EA3571A6,111,818052,3651.9,100,mirror,0,1,1,CR,TRUE,FALSE
6,detect-chase-confidence,11/21/2023,0182F2ECC053441689E86EA2EA3571A6,112,822072,2379.6,183,mirror,0,1,4,CR,TRUE,FALSE
6,detect-chase-confidence,11/21/2023,0182F2ECC053441689E86EA2EA3571A6,113,826818,2361.2,139,mirror,1,0,2,FA,TRUE,FALSE
6,detect-chase-confidence,11/21/2023,0182F2ECC053441689E86EA2EA3571A6,114,830335,849.4,122,mirror,1,0,2,FA,TRUE,FALSE
6,detect-chase-confidence,11/21/2023,0182F2ECC053441689E86EA2EA3571A6,115,836913,3877.5,155,chase,0,0,1,Ms,TRUE,FALSE
6,detect-chase-confidence,11/21/2023,0182F2ECC053441689E86EA2EA3571A6,116,841106,2404.3,37,chase,1,1,4,Hit,TRUE,FALSE
6,detect-chase-confidence,11/21/2023,0182F2ECC053441689E86EA2EA3571A6,117,844365,1562.6,220,chase,1,1,3,Hit,TRUE,FALSE
6,detect-chase-confidence,11/21/2023,0182F2ECC053441689E86EA2EA3571A6,118,848253,2201,61,chase,0,0,2,Ms,TRUE,FALSE
6,detect-chase-confidence,11/21/2023,0182F2ECC053441689E86EA2EA3571A6,119,852667,2331.4,254,mirror,1,0,3,FA,TRUE,FALSE
6,detect-chase-confidence,11/21/2023,0182F2ECC053441689E86EA2EA3571A6,120,858996,3309.1,197,mirror,1,0,2,FA,TRUE,FALSE
6,detect-chase-confidence,11/21/2023,0182F2ECC053441689E86EA2EA3571A6,121,866616,4293.9,147,chase,0,0,1,Ms,TRUE,FALSE
6,detect-chase-confidence,11/21/2023,0182F2ECC053441689E86EA2EA3571A6,122,870920,2982.8,74,chase,1,1,1,Hit,TRUE,FALSE
6,detect-chase-confidence,11/21/2023,0182F2ECC053441689E86EA2EA3571A6,123,877401,3047.9,65,chase,0,0,4,Ms,TRUE,FALSE
6,detect-chase-confidence,11/21/2023,0182F2ECC053441689E86EA2EA3571A6,124,882119,1864.4,100,chase,1,1,5,Hit,TRUE,FALSE
6,detect-chase-confidence,11/21/2023,0182F2ECC053441689E86EA2EA3571A6,125,886179,1741.9,76,mirror,0,1,5,CR,TRUE,FALSE
6,detect-chase-confidence,11/21/2023,0182F2ECC053441689E86EA2EA3571A6,126,891433,1841.4,256,mirror,0,1,2,CR,TRUE,FALSE
6,detect-chase-confidence,11/21/2023,0182F2ECC053441689E86EA2EA3571A6,127,896066,2361.2,169,chase,1,1,3,Hit,TRUE,FALSE
6,detect-chase-confidence,11/21/2023,0182F2ECC053441689E86EA2EA3571A6,128,899633,1377.7,94,chase,1,1,2,Hit,TRUE,FALSE
6,detect-chase-confidence,11/21/2023,0182F2ECC053441689E86EA2EA3571A6,129,904494,2007,291,mirror,1,0,3,FA,TRUE,FALSE
6,detect-chase-confidence,11/21/2023,0182F2ECC053441689E86EA2EA3571A6,130,909486,2647.9,21,chase,0,0,1,Ms,TRUE,FALSE
6,detect-chase-confidence,11/21/2023,0182F2ECC053441689E86EA2EA3571A6,131,914926,3087.7,101,mirror,0,1,3,CR,TRUE,FALSE
6,detect-chase-confidence,11/21/2023,0182F2ECC053441689E86EA2EA3571A6,132,920862,3789.5,54,mirror,0,1,3,CR,TRUE,FALSE
6,detect-chase-confidence,11/21/2023,0182F2ECC053441689E86EA2EA3571A6,133,925182,2862.4,143,chase,1,1,3,Hit,TRUE,FALSE
6,detect-chase-confidence,11/21/2023,0182F2ECC053441689E86EA2EA3571A6,134,929797,1560.5,94,mirror,1,0,4,FA,TRUE,FALSE
6,detect-chase-confidence,11/21/2023,0182F2ECC053441689E86EA2EA3571A6,135,934151,2128,252,chase,1,1,4,Hit,TRUE,FALSE
6,detect-chase-confidence,11/21/2023,0182F2ECC053441689E86EA2EA3571A6,136,939538,2884.5,168,mirror,1,0,1,FA,TRUE,FALSE
6,detect-chase-confidence,11/21/2023,0182F2ECC053441689E86EA2EA3571A6,137,944511,2453.4,186,mirror,0,1,2,CR,TRUE,FALSE
6,detect-chase-confidence,11/21/2023,0182F2ECC053441689E86EA2EA3571A6,138,948767,2148.7,173,mirror,1,0,2,FA,TRUE,FALSE
6,detect-chase-confidence,11/21/2023,0182F2ECC053441689E86EA2EA3571A6,139,953022,1716.4,78,mirror,1,0,3,FA,TRUE,FALSE
6,detect-chase-confidence,11/21/2023,0182F2ECC053441689E86EA2EA3571A6,140,957221,2050.3,168,chase,0,0,3,Ms,TRUE,FALSE
6,detect-chase-confidence,11/21/2023,0182F2ECC053441689E86EA2EA3571A6,141,964008,4521.3,291,chase,0,0,4,Ms,TRUE,FALSE
6,detect-chase-confidence,11/21/2023,0182F2ECC053441689E86EA2EA3571A6,142,967284,1801.7,21,mirror,1,0,3,FA,TRUE,FALSE
6,detect-chase-confidence,11/21/2023,0182F2ECC053441689E86EA2EA3571A6,143,971367,1765.2,60,mirror,1,0,4,FA,TRUE,FALSE
6,detect-chase-confidence,11/21/2023,0182F2ECC053441689E86EA2EA3571A6,144,975736,1381.7,84,chase,1,1,3,Hit,TRUE,FALSE
6,detect-chase-confidence,11/21/2023,0182F2ECC053441689E86EA2EA3571A6,145,981627,3537.8,206,chase,0,0,2,Ms,TRUE,FALSE
6,detect-chase-confidence,11/21/2023,0182F2ECC053441689E86EA2EA3571A6,146,986088,2868.2,213,mirror,0,1,3,CR,TRUE,FALSE
6,detect-chase-confidence,11/21/2023,0182F2ECC053441689E86EA2EA3571A6,147,989254,1450.2,57,mirror,1,0,3,FA,TRUE,FALSE
6,detect-chase-confidence,11/21/2023,0182F2ECC053441689E86EA2EA3571A6,148,993545,2110.2,7,mirror,1,0,3,FA,TRUE,FALSE
6,detect-chase-confidence,11/21/2023,0182F2ECC053441689E86EA2EA3571A6,149,999704,4184,32,mirror,1,0,4,FA,TRUE,FALSE
6,detect-chase-confidence,11/21/2023,0182F2ECC053441689E86EA2EA3571A6,150,1003147,1493.7,212,mirror,0,1,3,CR,TRUE,FALSE
6,detect-chase-confidence,11/21/2023,0182F2ECC053441689E86EA2EA3571A6,151,1009626,4504,247,chase,1,1,3,Hit,TRUE,FALSE
6,detect-chase-confidence,11/21/2023,0182F2ECC053441689E86EA2EA3571A6,152,1014929,2992.6,50,mirror,1,0,2,FA,TRUE,FALSE
6,detect-chase-confidence,11/21/2023,0182F2ECC053441689E86EA2EA3571A6,153,1018874,1601.8,109,chase,1,1,4,Hit,TRUE,FALSE
6,detect-chase-confidence,11/21/2023,0182F2ECC053441689E86EA2EA3571A6,154,1025189,4053,169,mirror,1,0,4,FA,TRUE,FALSE
6,detect-chase-confidence,11/21/2023,0182F2ECC053441689E86EA2EA3571A6,155,1030666,3059.4,60,chase,0,0,2,Ms,TRUE,FALSE
6,detect-chase-confidence,11/21/2023,0182F2ECC053441689E86EA2EA3571A6,156,1034818,2118.5,128,mirror,0,1,3,CR,TRUE,FALSE
6,detect-chase-confidence,11/21/2023,0182F2ECC053441689E86EA2EA3571A6,157,1038896,1958.3,6,mirror,1,0,3,FA,TRUE,FALSE
6,detect-chase-confidence,11/21/2023,0182F2ECC053441689E86EA2EA3571A6,158,1042957,1846.7,210,mirror,1,0,3,FA,TRUE,FALSE
6,detect-chase-confidence,11/21/2023,0182F2ECC053441689E86EA2EA3571A6,159,1049616,3676.6,298,mirror,0,1,3,CR,TRUE,FALSE
6,detect-chase-confidence,11/21/2023,0182F2ECC053441689E86EA2EA3571A6,160,1054139,2355.9,32,chase,1,1,4,Hit,TRUE,FALSE
6,detect-chase-confidence,11/21/2023,0182F2ECC053441689E86EA2EA3571A6,161,1057912,1811.5,176,chase,0,0,5,Ms,TRUE,FALSE
6,detect-chase-confidence,11/21/2023,0182F2ECC053441689E86EA2EA3571A6,162,1061703,1917.3,227,chase,1,1,5,Hit,TRUE,FALSE
6,detect-chase-confidence,11/21/2023,0182F2ECC053441689E86EA2EA3571A6,163,1066281,2362.6,129,chase,0,0,3,Ms,TRUE,FALSE
6,detect-chase-confidence,11/21/2023,0182F2ECC053441689E86EA2EA3571A6,164,1072806,3612,203,chase,0,0,1,Ms,TRUE,FALSE
6,detect-chase-confidence,11/21/2023,0182F2ECC053441689E86EA2EA3571A6,165,1076913,1038.7,119,mirror,1,0,4,FA,TRUE,FALSE
6,detect-chase-confidence,11/21/2023,0182F2ECC053441689E86EA2EA3571A6,166,1081342,2038.9,120,mirror,1,0,3,FA,TRUE,FALSE
6,detect-chase-confidence,11/21/2023,0182F2ECC053441689E86EA2EA3571A6,167,1087566,4035.2,80,mirror,1,0,4,FA,TRUE,FALSE
6,detect-chase-confidence,11/21/2023,0182F2ECC053441689E86EA2EA3571A6,168,1091639,2001.1,267,mirror,0,1,1,CR,TRUE,FALSE
6,detect-chase-confidence,11/21/2023,0182F2ECC053441689E86EA2EA3571A6,169,1095402,1743,69,chase,0,0,2,Ms,TRUE,FALSE
6,detect-chase-confidence,11/21/2023,0182F2ECC053441689E86EA2EA3571A6,170,1099230,1706.9,139,chase,0,0,3,Ms,TRUE,FALSE
6,detect-chase-confidence,11/21/2023,0182F2ECC053441689E86EA2EA3571A6,171,1102975,1756.4,210,chase,0,0,2,Ms,TRUE,FALSE
6,detect-chase-confidence,11/21/2023,0182F2ECC053441689E86EA2EA3571A6,172,1106998,1544.5,101,chase,1,1,4,Hit,TRUE,FALSE
6,detect-chase-confidence,11/21/2023,0182F2ECC053441689E86EA2EA3571A6,173,1111331,2541.8,119,chase,1,1,2,Hit,TRUE,FALSE
6,detect-chase-confidence,11/21/2023,0182F2ECC053441689E86EA2EA3571A6,174,1115566,807.4,95,mirror,1,0,3,FA,TRUE,FALSE
6,detect-chase-confidence,11/21/2023,0182F2ECC053441689E86EA2EA3571A6,175,1120205,2472.2,273,chase,1,1,3,Hit,TRUE,FALSE
6,detect-chase-confidence,11/21/2023,0182F2ECC053441689E86EA2EA3571A6,176,1124096,2308,74,mirror,0,1,2,CR,TRUE,FALSE
6,detect-chase-confidence,11/21/2023,0182F2ECC053441689E86EA2EA3571A6,177,1128846,2757.3,209,chase,0,0,5,Ms,TRUE,FALSE
6,detect-chase-confidence,11/21/2023,0182F2ECC053441689E86EA2EA3571A6,178,1134160,3015.1,27,chase,1,1,4,Hit,TRUE,FALSE
6,detect-chase-confidence,11/21/2023,0182F2ECC053441689E86EA2EA3571A6,179,1139231,3108.4,248,mirror,0,1,2,CR,TRUE,FALSE
6,detect-chase-confidence,11/21/2023,0182F2ECC053441689E86EA2EA3571A6,180,1143006,2101.8,129,mirror,1,0,1,FA,TRUE,FALSE
6,detect-chase-confidence,11/21/2023,0182F2ECC053441689E86EA2EA3571A6,181,1148926,2838.1,102,chase,1,1,2,Hit,TRUE,FALSE
6,detect-chase-confidence,11/21/2023,0182F2ECC053441689E86EA2EA3571A6,182,1157696,5044.9,43,mirror,0,1,1,CR,TRUE,FALSE
6,detect-chase-confidence,11/21/2023,0182F2ECC053441689E86EA2EA3571A6,183,1159925,720.4,46,mirror,0,1,3,CR,TRUE,FALSE
6,detect-chase-confidence,11/21/2023,0182F2ECC053441689E86EA2EA3571A6,184,1164237,2365.3,276,chase,1,1,3,Hit,TRUE,FALSE
6,detect-chase-confidence,11/21/2023,0182F2ECC053441689E86EA2EA3571A6,185,1168489,2302.1,198,mirror,1,0,3,FA,TRUE,FALSE
6,detect-chase-confidence,11/21/2023,0182F2ECC053441689E86EA2EA3571A6,186,1173578,3140.1,44,chase,1,1,3,Hit,TRUE,FALSE
6,detect-chase-confidence,11/21/2023,0182F2ECC053441689E86EA2EA3571A6,187,1177383,2229.6,128,chase,1,1,3,Hit,TRUE,FALSE
6,detect-chase-confidence,11/21/2023,0182F2ECC053441689E86EA2EA3571A6,188,1183681,4241.9,283,chase,1,1,5,Hit,TRUE,FALSE
6,detect-chase-confidence,11/21/2023,0182F2ECC053441689E86EA2EA3571A6,189,1188228,2321.2,93,mirror,0,1,1,CR,TRUE,FALSE
6,detect-chase-confidence,11/21/2023,0182F2ECC053441689E86EA2EA3571A6,190,1193357,2901.9,273,mirror,1,0,4,FA,TRUE,FALSE
6,detect-chase-confidence,11/21/2023,0182F2ECC053441689E86EA2EA3571A6,191,1198679,3207.6,7,chase,1,1,4,Hit,TRUE,FALSE
6,detect-chase-confidence,11/21/2023,0182F2ECC053441689E86EA2EA3571A6,192,1202314,2123.3,147,mirror,0,1,1,CR,TRUE,FALSE
6,detect-chase-confidence,11/21/2023,0182F2ECC053441689E86EA2EA3571A6,193,1207696,3156,44,mirror,0,1,3,CR,TRUE,FALSE
6,detect-chase-confidence,11/21/2023,0182F2ECC053441689E86EA2EA3571A6,194,1211294,1988.7,83,mirror,1,0,2,FA,TRUE,FALSE
6,detect-chase-confidence,11/21/2023,0182F2ECC053441689E86EA2EA3571A6,195,1220319,5776.3,48,mirror,0,1,1,CR,TRUE,FALSE
6,detect-chase-confidence,11/21/2023,0182F2ECC053441689E86EA2EA3571A6,196,1225595,1619.7,118,mirror,1,0,1,FA,TRUE,FALSE
6,detect-chase-confidence,11/21/2023,0182F2ECC053441689E86EA2EA3571A6,197,1232472,4310.8,229,chase,0,0,3,Ms,TRUE,FALSE
6,detect-chase-confidence,11/21/2023,0182F2ECC053441689E86EA2EA3571A6,198,1236750,2378.1,2,chase,0,0,3,Ms,TRUE,FALSE
6,detect-chase-confidence,11/21/2023,0182F2ECC053441689E86EA2EA3571A6,199,1240798,2209.1,227,mirror,1,0,1,FA,TRUE,FALSE
6,detect-chase-confidence,11/21/2023,0182F2ECC053441689E86EA2EA3571A6,200,1246540,3032.5,43,chase,1,1,2,Hit,TRUE,FALSE
6,detect-chase-confidence,11/21/2023,01C706008D484E639F3C1E8029E096CA,1,118200,5897.8,298,chase,1,1,NA,Hit,TRUE,TRUE
6,detect-chase-confidence,11/21/2023,01C706008D484E639F3C1E8029E096CA,2,125320,6102.2,207,chase,1,1,NA,Hit,TRUE,TRUE
6,detect-chase-confidence,11/21/2023,01C706008D484E639F3C1E8029E096CA,3,131561,5222.8,298,mirror,0,1,NA,CR,TRUE,TRUE
6,detect-chase-confidence,11/21/2023,01C706008D484E639F3C1E8029E096CA,4,137844,5266.8,236,chase,0,0,NA,Ms,TRUE,TRUE
6,detect-chase-confidence,11/21/2023,01C706008D484E639F3C1E8029E096CA,5,144203,5335.1,136,mirror,0,1,NA,CR,TRUE,TRUE
6,detect-chase-confidence,11/21/2023,01C706008D484E639F3C1E8029E096CA,6,151271,6037.6,193,chase,1,1,NA,Hit,TRUE,TRUE
6,detect-chase-confidence,11/21/2023,01C706008D484E639F3C1E8029E096CA,7,157389,5105.8,121,mirror,1,0,NA,FA,TRUE,TRUE
6,detect-chase-confidence,11/21/2023,01C706008D484E639F3C1E8029E096CA,8,163429,5025.3,148,chase,1,1,NA,Hit,TRUE,TRUE
6,detect-chase-confidence,11/21/2023,01C706008D484E639F3C1E8029E096CA,9,169482,5027.6,138,chase,1,1,NA,Hit,TRUE,TRUE
6,detect-chase-confidence,11/21/2023,01C706008D484E639F3C1E8029E096CA,10,175435,4945.2,207,mirror,1,0,NA,FA,TRUE,TRUE
6,detect-chase-confidence,11/21/2023,01C706008D484E639F3C1E8029E096CA,11,181679,5236.4,236,mirror,1,0,NA,FA,TRUE,TRUE
6,detect-chase-confidence,11/21/2023,01C706008D484E639F3C1E8029E096CA,12,187838,5138.4,276,mirror,1,0,NA,FA,TRUE,TRUE
6,detect-chase-confidence,11/21/2023,01C706008D484E639F3C1E8029E096CA,13,194195,5341.9,148,mirror,0,1,NA,CR,TRUE,TRUE
6,detect-chase-confidence,11/21/2023,01C706008D484E639F3C1E8029E096CA,14,201009,5791.3,121,chase,1,1,NA,Hit,TRUE,TRUE
6,detect-chase-confidence,11/21/2023,01C706008D484E639F3C1E8029E096CA,15,207056,5028.6,80,mirror,1,0,NA,FA,TRUE,TRUE
6,detect-chase-confidence,11/21/2023,01C706008D484E639F3C1E8029E096CA,16,213432,5372.5,193,mirror,1,0,NA,FA,TRUE,TRUE
6,detect-chase-confidence,11/21/2023,01C706008D484E639F3C1E8029E096CA,17,219494,5047.2,276,chase,1,1,NA,Hit,TRUE,TRUE
6,detect-chase-confidence,11/21/2023,01C706008D484E639F3C1E8029E096CA,18,225483,4967.2,136,chase,1,1,NA,Hit,TRUE,TRUE
6,detect-chase-confidence,11/21/2023,01C706008D484E639F3C1E8029E096CA,19,231485,4973.7,138,mirror,0,1,NA,CR,TRUE,TRUE
6,detect-chase-confidence,11/21/2023,01C706008D484E639F3C1E8029E096CA,20,237439,4945.2,80,chase,1,1,NA,Hit,TRUE,TRUE
6,detect-chase-confidence,11/21/2023,01C706008D484E639F3C1E8029E096CA,21,267051,5004,98,chase,1,1,5,Hit,TRUE,TRUE
6,detect-chase-confidence,11/21/2023,01C706008D484E639F3C1E8029E096CA,22,273838,4976.3,282,chase,1,1,4,Hit,TRUE,TRUE
6,detect-chase-confidence,11/21/2023,01C706008D484E639F3C1E8029E096CA,23,280470,5367.2,142,mirror,0,1,2,CR,TRUE,TRUE
6,detect-chase-confidence,11/21/2023,01C706008D484E639F3C1E8029E096CA,24,290585,5519.4,49,mirror,1,0,1,FA,TRUE,TRUE
6,detect-chase-confidence,11/21/2023,01C706008D484E639F3C1E8029E096CA,25,297394,5568.2,57,mirror,1,0,2,FA,TRUE,TRUE
6,detect-chase-confidence,11/21/2023,01C706008D484E639F3C1E8029E096CA,26,306033,7099.5,147,mirror,0,1,1,CR,TRUE,TRUE
6,detect-chase-confidence,11/21/2023,01C706008D484E639F3C1E8029E096CA,27,312872,5855.7,67,chase,1,1,2,Hit,TRUE,TRUE
6,detect-chase-confidence,11/21/2023,01C706008D484E639F3C1E8029E096CA,28,319139,5161.1,160,mirror,1,0,3,FA,TRUE,TRUE
6,detect-chase-confidence,11/21/2023,01C706008D484E639F3C1E8029E096CA,29,325567,5134.9,239,chase,1,1,4,Hit,TRUE,TRUE
6,detect-chase-confidence,11/21/2023,01C706008D484E639F3C1E8029E096CA,30,332155,5180.8,235,mirror,1,0,4,FA,TRUE,TRUE
6,detect-chase-confidence,11/21/2023,01C706008D484E639F3C1E8029E096CA,31,340500,7176.3,19,mirror,1,0,1,FA,TRUE,TRUE
6,detect-chase-confidence,11/21/2023,01C706008D484E639F3C1E8029E096CA,32,347366,5243,203,mirror,0,1,3,CR,TRUE,TRUE
6,detect-chase-confidence,11/21/2023,01C706008D484E639F3C1E8029E096CA,33,354317,5778.6,61,mirror,0,1,1,CR,TRUE,TRUE
6,detect-chase-confidence,11/21/2023,01C706008D484E639F3C1E8029E096CA,34,360628,5020.5,41,chase,1,1,5,Hit,TRUE,TRUE
6,detect-chase-confidence,11/21/2023,01C706008D484E639F3C1E8029E096CA,35,367252,5523.1,58,mirror,0,1,2,CR,TRUE,TRUE
6,detect-chase-confidence,11/21/2023,01C706008D484E639F3C1E8029E096CA,36,374023,5634,251,mirror,0,1,1,CR,TRUE,TRUE
6,detect-chase-confidence,11/21/2023,01C706008D484E639F3C1E8029E096CA,37,380895,5807.4,200,mirror,0,1,1,CR,TRUE,TRUE
6,detect-chase-confidence,11/21/2023,01C706008D484E639F3C1E8029E096CA,38,387247,5293.4,142,chase,1,1,5,Hit,TRUE,TRUE
6,detect-chase-confidence,11/21/2023,01C706008D484E639F3C1E8029E096CA,39,393764,5244.9,247,chase,1,1,4,Hit,TRUE,TRUE
6,detect-chase-confidence,11/21/2023,01C706008D484E639F3C1E8029E096CA,40,400458,5172.3,170,mirror,0,1,3,CR,TRUE,TRUE
6,detect-chase-confidence,11/21/2023,01C706008D484E639F3C1E8029E096CA,41,408430,6681.3,13,chase,1,1,1,Hit,TRUE,TRUE
6,detect-chase-confidence,11/21/2023,01C706008D484E639F3C1E8029E096CA,42,414927,5035.3,170,chase,1,1,4,Hit,TRUE,TRUE
6,detect-chase-confidence,11/21/2023,01C706008D484E639F3C1E8029E096CA,43,421161,5096.1,255,chase,1,1,5,Hit,TRUE,TRUE
6,detect-chase-confidence,11/21/2023,01C706008D484E639F3C1E8029E096CA,44,427884,5684.7,265,mirror,0,1,1,CR,TRUE,TRUE
6,detect-chase-confidence,11/21/2023,01C706008D484E639F3C1E8029E096CA,45,433740,4854.1,76,mirror,0,1,3,CR,TRUE,TRUE
6,detect-chase-confidence,11/21/2023,01C706008D484E639F3C1E8029E096CA,46,445034,5401.4,284,mirror,0,1,1,CR,TRUE,TRUE
6,detect-chase-confidence,11/21/2023,01C706008D484E639F3C1E8029E096CA,47,451188,5137.9,212,chase,1,1,4,Hit,TRUE,TRUE
6,detect-chase-confidence,11/21/2023,01C706008D484E639F3C1E8029E096CA,48,457647,5321.7,127,chase,1,1,2,Hit,TRUE,TRUE
6,detect-chase-confidence,11/21/2023,01C706008D484E639F3C1E8029E096CA,49,463698,5045,75,chase,1,1,5,Hit,TRUE,TRUE
6,detect-chase-confidence,11/21/2023,01C706008D484E639F3C1E8029E096CA,50,469978,5231.5,186,chase,1,1,5,Hit,TRUE,TRUE
6,detect-chase-confidence,11/21/2023,01C706008D484E639F3C1E8029E096CA,51,477025,5677.1,186,mirror,0,1,1,CR,TRUE,TRUE
6,detect-chase-confidence,11/21/2023,01C706008D484E639F3C1E8029E096CA,52,483221,5205.5,180,chase,1,1,3,Hit,TRUE,TRUE
6,detect-chase-confidence,11/21/2023,01C706008D484E639F3C1E8029E096CA,53,489993,5187.4,218,chase,1,1,5,Hit,TRUE,TRUE
6,detect-chase-confidence,11/21/2023,01C706008D484E639F3C1E8029E096CA,54,496950,5868.9,42,mirror,0,1,2,CR,TRUE,TRUE
6,detect-chase-confidence,11/21/2023,01C706008D484E639F3C1E8029E096CA,55,503758,5049.4,211,mirror,1,0,4,FA,TRUE,TRUE
6,detect-chase-confidence,11/21/2023,01C706008D484E639F3C1E8029E096CA,56,510277,5244.1,224,chase,1,1,5,Hit,TRUE,TRUE
6,detect-chase-confidence,11/21/2023,01C706008D484E639F3C1E8029E096CA,57,516478,5068.4,140,mirror,0,1,3,CR,TRUE,TRUE
6,detect-chase-confidence,11/21/2023,01C706008D484E639F3C1E8029E096CA,58,523205,5178,90,chase,1,1,4,Hit,TRUE,TRUE
6,detect-chase-confidence,11/21/2023,01C706008D484E639F3C1E8029E096CA,59,529276,5084.1,188,chase,1,1,5,Hit,TRUE,TRUE
6,detect-chase-confidence,11/21/2023,01C706008D484E639F3C1E8029E096CA,60,535260,4983.7,151,mirror,0,1,4,CR,TRUE,TRUE
6,detect-chase-confidence,11/21/2023,01C706008D484E639F3C1E8029E096CA,61,541188,4965.5,11,mirror,1,0,4,FA,TRUE,TRUE
6,detect-chase-confidence,11/21/2023,01C706008D484E639F3C1E8029E096CA,62,547370,5168.6,124,mirror,0,1,3,CR,TRUE,TRUE
6,detect-chase-confidence,11/21/2023,01C706008D484E639F3C1E8029E096CA,63,553815,5110,76,chase,1,1,4,Hit,TRUE,TRUE
6,detect-chase-confidence,11/21/2023,01C706008D484E639F3C1E8029E096CA,64,559756,4967,245,mirror,0,1,4,CR,TRUE,TRUE
6,detect-chase-confidence,11/21/2023,01C706008D484E639F3C1E8029E096CA,65,565685,5063.8,77,chase,1,1,4,Hit,TRUE,TRUE
6,detect-chase-confidence,11/21/2023,01C706008D484E639F3C1E8029E096CA,66,571837,5115.5,25,chase,1,1,5,Hit,TRUE,TRUE
6,detect-chase-confidence,11/21/2023,01C706008D484E639F3C1E8029E096CA,67,578296,5443.9,211,chase,1,1,5,Hit,TRUE,TRUE
6,detect-chase-confidence,11/21/2023,01C706008D484E639F3C1E8029E096CA,68,584260,4856.9,296,chase,1,1,4,Hit,TRUE,TRUE
6,detect-chase-confidence,11/21/2023,01C706008D484E639F3C1E8029E096CA,69,592021,5040.9,222,chase,1,1,5,Hit,TRUE,TRUE
6,detect-chase-confidence,11/21/2023,01C706008D484E639F3C1E8029E096CA,70,598229,5215.6,175,chase,1,1,5,Hit,TRUE,TRUE
6,detect-chase-confidence,11/21/2023,01C706008D484E639F3C1E8029E096CA,71,604626,5173.4,30,mirror,0,1,4,CR,TRUE,TRUE
6,detect-chase-confidence,11/21/2023,01C706008D484E639F3C1E8029E096CA,72,611695,5709,95,mirror,0,1,1,CR,TRUE,TRUE
6,detect-chase-confidence,11/21/2023,01C706008D484E639F3C1E8029E096CA,73,618817,5926.6,175,mirror,0,1,2,CR,TRUE,TRUE
6,detect-chase-confidence,11/21/2023,01C706008D484E639F3C1E8029E096CA,74,625549,5369.6,108,mirror,0,1,1,CR,TRUE,TRUE
6,detect-chase-confidence,11/21/2023,01C706008D484E639F3C1E8029E096CA,75,633023,5926.2,30,chase,1,1,5,Hit,TRUE,TRUE
6,detect-chase-confidence,11/21/2023,01C706008D484E639F3C1E8029E096CA,76,639800,5749.7,156,chase,1,1,2,Hit,TRUE,TRUE
6,detect-chase-confidence,11/21/2023,01C706008D484E639F3C1E8029E096CA,77,648161,6698.8,112,mirror,1,0,1,FA,TRUE,TRUE
6,detect-chase-confidence,11/21/2023,01C706008D484E639F3C1E8029E096CA,78,654520,5314.5,50,mirror,0,1,2,CR,TRUE,TRUE
6,detect-chase-confidence,11/21/2023,01C706008D484E639F3C1E8029E096CA,79,660905,5078.6,279,chase,1,1,4,Hit,TRUE,TRUE
6,detect-chase-confidence,11/21/2023,01C706008D484E639F3C1E8029E096CA,80,667134,5004,42,chase,1,1,5,Hit,TRUE,TRUE
6,detect-chase-confidence,11/21/2023,01C706008D484E639F3C1E8029E096CA,81,673384,5213,38,mirror,1,0,3,FA,TRUE,TRUE
6,detect-chase-confidence,11/21/2023,01C706008D484E639F3C1E8029E096CA,82,681226,6641.7,177,mirror,1,0,1,FA,TRUE,TRUE
6,detect-chase-confidence,11/21/2023,01C706008D484E639F3C1E8029E096CA,83,687646,5220.4,128,mirror,0,1,2,CR,TRUE,TRUE
6,detect-chase-confidence,11/21/2023,01C706008D484E639F3C1E8029E096CA,84,694246,5176.9,119,mirror,0,1,2,CR,TRUE,TRUE
6,detect-chase-confidence,11/21/2023,01C706008D484E639F3C1E8029E096CA,85,701120,5260.2,98,mirror,1,0,1,FA,TRUE,TRUE
6,detect-chase-confidence,11/21/2023,01C706008D484E639F3C1E8029E096CA,86,708160,5742.3,52,mirror,1,0,1,FA,TRUE,TRUE
6,detect-chase-confidence,11/21/2023,01C706008D484E639F3C1E8029E096CA,87,714484,5259.1,243,chase,1,1,3,Hit,TRUE,TRUE
6,detect-chase-confidence,11/21/2023,01C706008D484E639F3C1E8029E096CA,88,720893,5296.3,250,mirror,0,1,1,CR,TRUE,TRUE
6,detect-chase-confidence,11/21/2023,01C706008D484E639F3C1E8029E096CA,89,727306,5392.4,64,mirror,0,1,2,CR,TRUE,TRUE
6,detect-chase-confidence,11/21/2023,01C706008D484E639F3C1E8029E096CA,90,734315,4917.6,140,chase,1,1,5,Hit,TRUE,TRUE
6,detect-chase-confidence,11/21/2023,01C706008D484E639F3C1E8029E096CA,91,741011,5478.6,164,mirror,1,0,2,FA,TRUE,TRUE
6,detect-chase-confidence,11/21/2023,01C706008D484E639F3C1E8029E096CA,92,747240,5017.1,239,mirror,0,1,2,CR,TRUE,TRUE
6,detect-chase-confidence,11/21/2023,01C706008D484E639F3C1E8029E096CA,93,755077,5112.9,70,mirror,0,1,2,CR,TRUE,TRUE
6,detect-chase-confidence,11/21/2023,01C706008D484E639F3C1E8029E096CA,94,761558,5225.1,118,mirror,0,1,1,CR,TRUE,TRUE
6,detect-chase-confidence,11/21/2023,01C706008D484E639F3C1E8029E096CA,95,769543,5064.4,247,mirror,1,0,3,FA,TRUE,TRUE
6,detect-chase-confidence,11/21/2023,01C706008D484E639F3C1E8029E096CA,96,776580,5566.9,69,mirror,0,1,1,CR,TRUE,TRUE
6,detect-chase-confidence,11/21/2023,01C706008D484E639F3C1E8029E096CA,97,783777,5796.3,104,chase,0,0,1,Ms,TRUE,TRUE
6,detect-chase-confidence,11/21/2023,01C706008D484E639F3C1E8029E096CA,98,789759,5005.9,201,chase,1,1,2,Hit,TRUE,TRUE
6,detect-chase-confidence,11/21/2023,01C706008D484E639F3C1E8029E096CA,99,796073,4995.8,64,chase,1,1,5,Hit,TRUE,TRUE
6,detect-chase-confidence,11/21/2023,01C706008D484E639F3C1E8029E096CA,100,802235,5105,75,mirror,1,0,2,FA,TRUE,TRUE
6,detect-chase-confidence,11/21/2023,01C706008D484E639F3C1E8029E096CA,101,808556,5066.9,77,mirror,1,0,3,FA,TRUE,TRUE
6,detect-chase-confidence,11/21/2023,01C706008D484E639F3C1E8029E096CA,102,815936,5344.5,17,mirror,1,0,2,FA,TRUE,TRUE
6,detect-chase-confidence,11/21/2023,01C706008D484E639F3C1E8029E096CA,103,822525,5268.1,153,mirror,1,0,2,FA,TRUE,TRUE
6,detect-chase-confidence,11/21/2023,01C706008D484E639F3C1E8029E096CA,104,828615,4908,57,chase,1,1,5,Hit,TRUE,TRUE
6,detect-chase-confidence,11/21/2023,01C706008D484E639F3C1E8029E096CA,105,834986,5355,234,mirror,0,1,1,CR,TRUE,TRUE
6,detect-chase-confidence,11/21/2023,01C706008D484E639F3C1E8029E096CA,106,841008,5015.1,95,chase,1,1,5,Hit,TRUE,TRUE
6,detect-chase-confidence,11/21/2023,01C706008D484E639F3C1E8029E096CA,107,847113,5085.9,224,mirror,1,0,1,FA,TRUE,TRUE
6,detect-chase-confidence,11/21/2023,01C706008D484E639F3C1E8029E096CA,108,853531,5272.5,25,mirror,0,1,2,CR,TRUE,TRUE
6,detect-chase-confidence,11/21/2023,01C706008D484E639F3C1E8029E096CA,109,859835,4942.7,160,chase,1,1,5,Hit,TRUE,TRUE
6,detect-chase-confidence,11/21/2023,01C706008D484E639F3C1E8029E096CA,110,865912,5087.1,243,mirror,1,0,4,FA,TRUE,TRUE
6,detect-chase-confidence,11/21/2023,01C706008D484E639F3C1E8029E096CA,111,871943,4986,124,chase,1,1,5,Hit,TRUE,TRUE
6,detect-chase-confidence,11/21/2023,01C706008D484E639F3C1E8029E096CA,112,880008,7068.5,229,mirror,1,0,1,FA,TRUE,TRUE
6,detect-chase-confidence,11/21/2023,01C706008D484E639F3C1E8029E096CA,113,887307,6196.1,282,mirror,0,1,1,CR,TRUE,TRUE
6,detect-chase-confidence,11/21/2023,01C706008D484E639F3C1E8029E096CA,114,893541,5124.9,292,mirror,1,0,2,FA,TRUE,TRUE
6,detect-chase-confidence,11/21/2023,01C706008D484E639F3C1E8029E096CA,115,899671,4923.4,70,chase,1,1,5,Hit,TRUE,TRUE
6,detect-chase-confidence,11/21/2023,01C706008D484E639F3C1E8029E096CA,116,905741,5079.9,202,chase,1,1,4,Hit,TRUE,TRUE
6,detect-chase-confidence,11/21/2023,01C706008D484E639F3C1E8029E096CA,117,911895,5002.9,106,chase,1,1,4,Hit,TRUE,TRUE
6,detect-chase-confidence,11/21/2023,01C706008D484E639F3C1E8029E096CA,118,918400,5441,47,mirror,1,0,1,FA,TRUE,TRUE
6,detect-chase-confidence,11/21/2023,01C706008D484E639F3C1E8029E096CA,119,924889,5351.5,221,chase,1,1,4,Hit,TRUE,TRUE
6,detect-chase-confidence,11/21/2023,01C706008D484E639F3C1E8029E096CA,120,930983,5063.4,49,chase,1,1,4,Hit,TRUE,TRUE
6,detect-chase-confidence,11/21/2023,01C706008D484E639F3C1E8029E096CA,121,937305,5197.2,46,chase,1,1,4,Hit,TRUE,TRUE
6,detect-chase-confidence,11/21/2023,01C706008D484E639F3C1E8029E096CA,122,943313,4930.8,146,chase,1,1,4,Hit,TRUE,TRUE
6,detect-chase-confidence,11/21/2023,01C706008D484E639F3C1E8029E096CA,123,949784,5399.4,234,chase,0,0,1,Ms,TRUE,TRUE
6,detect-chase-confidence,11/21/2023,01C706008D484E639F3C1E8029E096CA,124,956149,5065.6,245,chase,1,1,4,Hit,TRUE,TRUE
6,detect-chase-confidence,11/21/2023,01C706008D484E639F3C1E8029E096CA,125,962140,4953.8,163,chase,1,1,4,Hit,TRUE,TRUE
6,detect-chase-confidence,11/21/2023,01C706008D484E639F3C1E8029E096CA,126,968068,4893.1,47,chase,1,1,5,Hit,TRUE,TRUE
6,detect-chase-confidence,11/21/2023,01C706008D484E639F3C1E8029E096CA,127,973997,4945.8,19,chase,1,1,4,Hit,TRUE,TRUE
6,detect-chase-confidence,11/21/2023,01C706008D484E639F3C1E8029E096CA,128,980395,5379.4,122,mirror,0,1,1,CR,TRUE,TRUE
6,detect-chase-confidence,11/21/2023,01C706008D484E639F3C1E8029E096CA,129,987093,5625.8,41,mirror,0,1,1,CR,TRUE,TRUE
6,detect-chase-confidence,11/21/2023,01C706008D484E639F3C1E8029E096CA,130,994173,5940,163,mirror,1,0,1,FA,TRUE,TRUE
6,detect-chase-confidence,11/21/2023,01C706008D484E639F3C1E8029E096CA,131,1000293,4960.4,108,chase,1,1,3,Hit,TRUE,TRUE
6,detect-chase-confidence,11/21/2023,01C706008D484E639F3C1E8029E096CA,132,1006245,4880.8,11,chase,1,1,2,Hit,TRUE,TRUE
6,detect-chase-confidence,11/21/2023,01C706008D484E639F3C1E8029E096CA,133,1012265,4834.7,8,chase,1,1,4,Hit,TRUE,TRUE
6,detect-chase-confidence,11/21/2023,01C706008D484E639F3C1E8029E096CA,134,1019545,6029.4,146,mirror,0,1,1,CR,TRUE,TRUE
6,detect-chase-confidence,11/21/2023,01C706008D484E639F3C1E8029E096CA,135,1025846,5362.5,71,mirror,0,1,1,CR,TRUE,TRUE
6,detect-chase-confidence,11/21/2023,01C706008D484E639F3C1E8029E096CA,136,1031978,4938,251,chase,1,1,5,Hit,TRUE,TRUE
6,detect-chase-confidence,11/21/2023,01C706008D484E639F3C1E8029E096CA,137,1040374,7310.4,296,mirror,1,0,1,FA,TRUE,TRUE
6,detect-chase-confidence,11/21/2023,01C706008D484E639F3C1E8029E096CA,138,1046662,4908.1,229,chase,1,1,5,Hit,TRUE,TRUE
6,detect-chase-confidence,11/21/2023,01C706008D484E639F3C1E8029E096CA,139,1052520,4873.3,293,chase,1,1,5,Hit,TRUE,TRUE
6,detect-chase-confidence,11/21/2023,01C706008D484E639F3C1E8029E096CA,140,1058434,4892.1,164,chase,1,1,5,Hit,TRUE,TRUE
6,detect-chase-confidence,11/21/2023,01C706008D484E639F3C1E8029E096CA,141,1064230,4853.3,58,chase,1,1,5,Hit,TRUE,TRUE
6,detect-chase-confidence,11/21/2023,01C706008D484E639F3C1E8029E096CA,142,1071140,5643.7,218,mirror,0,1,1,CR,TRUE,TRUE
6,detect-chase-confidence,11/21/2023,01C706008D484E639F3C1E8029E096CA,143,1077353,5012.3,86,mirror,1,0,2,FA,TRUE,TRUE
6,detect-chase-confidence,11/21/2023,01C706008D484E639F3C1E8029E096CA,144,1083916,5322.7,202,mirror,0,1,1,CR,TRUE,TRUE
6,detect-chase-confidence,11/21/2023,01C706008D484E639F3C1E8029E096CA,145,1090569,5056.1,88,mirror,0,1,1,CR,TRUE,TRUE
6,detect-chase-confidence,11/21/2023,01C706008D484E639F3C1E8029E096CA,146,1097149,5006.4,177,chase,1,1,3,Hit,TRUE,TRUE
6,detect-chase-confidence,11/21/2023,01C706008D484E639F3C1E8029E096CA,147,1103358,4596.6,120,chase,1,1,5,Hit,TRUE,TRUE
6,detect-chase-confidence,11/21/2023,01C706008D484E639F3C1E8029E096CA,148,1109323,5012.7,71,chase,1,1,5,Hit,TRUE,TRUE
6,detect-chase-confidence,11/21/2023,01C706008D484E639F3C1E8029E096CA,149,1115909,5523.7,60,mirror,0,1,2,CR,TRUE,TRUE
6,detect-chase-confidence,11/21/2023,01C706008D484E639F3C1E8029E096CA,150,1121921,4696.8,203,chase,1,1,5,Hit,TRUE,TRUE
6,detect-chase-confidence,11/21/2023,01C706008D484E639F3C1E8029E096CA,151,1128720,5365.7,231,mirror,0,1,1,CR,TRUE,TRUE
6,detect-chase-confidence,11/21/2023,01C706008D484E639F3C1E8029E096CA,152,1134806,5095.8,50,chase,1,1,5,Hit,TRUE,TRUE
6,detect-chase-confidence,11/21/2023,01C706008D484E639F3C1E8029E096CA,153,1141234,4990.7,69,chase,1,1,4,Hit,TRUE,TRUE
6,detect-chase-confidence,11/21/2023,01C706008D484E639F3C1E8029E096CA,154,1147402,5145.6,52,chase,0,0,1,Ms,TRUE,TRUE
6,detect-chase-confidence,11/21/2023,01C706008D484E639F3C1E8029E096CA,155,1153912,5200,120,mirror,0,1,1,CR,TRUE,TRUE
6,detect-chase-confidence,11/21/2023,01C706008D484E639F3C1E8029E096CA,156,1160669,5263.3,61,chase,1,1,2,Hit,TRUE,TRUE
6,detect-chase-confidence,11/21/2023,01C706008D484E639F3C1E8029E096CA,157,1167927,5960.6,107,mirror,0,1,1,CR,TRUE,TRUE
6,detect-chase-confidence,11/21/2023,01C706008D484E639F3C1E8029E096CA,158,1174062,5082.4,221,mirror,0,1,1,CR,TRUE,TRUE
6,detect-chase-confidence,11/21/2023,01C706008D484E639F3C1E8029E096CA,159,1180887,5695,284,chase,0,0,1,Ms,TRUE,TRUE
6,detect-chase-confidence,11/21/2023,01C706008D484E639F3C1E8029E096CA,160,1187146,5007.3,128,chase,1,1,2,Hit,TRUE,TRUE
6,detect-chase-confidence,11/21/2023,01C706008D484E639F3C1E8029E096CA,161,1193243,4947.7,255,mirror,1,0,3,FA,TRUE,TRUE
6,detect-chase-confidence,11/21/2023,01C706008D484E639F3C1E8029E096CA,162,1199467,5048.1,13,mirror,0,1,2,CR,TRUE,TRUE
6,detect-chase-confidence,11/21/2023,01C706008D484E639F3C1E8029E096CA,163,1205912,4984.9,292,chase,1,1,5,Hit,TRUE,TRUE
6,detect-chase-confidence,11/21/2023,01C706008D484E639F3C1E8029E096CA,164,1212460,5374.5,201,mirror,0,1,1,CR,TRUE,TRUE
6,detect-chase-confidence,11/21/2023,01C706008D484E639F3C1E8029E096CA,165,1218993,5072.5,188,mirror,1,0,2,FA,TRUE,TRUE
6,detect-chase-confidence,11/21/2023,01C706008D484E639F3C1E8029E096CA,166,1225322,4985.9,60,chase,1,1,2,Hit,TRUE,TRUE
6,detect-chase-confidence,11/21/2023,01C706008D484E639F3C1E8029E096CA,167,1232145,5249.4,222,mirror,0,1,2,CR,TRUE,TRUE
6,detect-chase-confidence,11/21/2023,01C706008D484E639F3C1E8029E096CA,168,1239128,5210.1,238,mirror,0,1,2,CR,TRUE,TRUE
6,detect-chase-confidence,11/21/2023,01C706008D484E639F3C1E8029E096CA,169,1245234,4909.8,17,chase,1,1,4,Hit,TRUE,TRUE
6,detect-chase-confidence,11/21/2023,01C706008D484E639F3C1E8029E096CA,170,1251121,4804.6,86,chase,1,1,5,Hit,TRUE,TRUE
6,detect-chase-confidence,11/21/2023,01C706008D484E639F3C1E8029E096CA,171,1257271,4950.8,153,chase,1,1,5,Hit,TRUE,TRUE
6,detect-chase-confidence,11/21/2023,01C706008D484E639F3C1E8029E096CA,172,1263245,4895.8,119,chase,1,1,3,Hit,TRUE,TRUE
6,detect-chase-confidence,11/21/2023,01C706008D484E639F3C1E8029E096CA,173,1269466,5025.3,88,chase,1,1,2,Hit,TRUE,TRUE
6,detect-chase-confidence,11/21/2023,01C706008D484E639F3C1E8029E096CA,174,1275912,5280.4,90,mirror,0,1,2,CR,TRUE,TRUE
6,detect-chase-confidence,11/21/2023,01C706008D484E639F3C1E8029E096CA,175,1282453,5145.8,122,chase,1,1,1,Hit,TRUE,TRUE
6,detect-chase-confidence,11/21/2023,01C706008D484E639F3C1E8029E096CA,176,1288522,4862.5,151,chase,1,1,4,Hit,TRUE,TRUE
6,detect-chase-confidence,11/21/2023,01C706008D484E639F3C1E8029E096CA,177,1294949,5344.1,127,mirror,0,1,1,CR,TRUE,TRUE
6,detect-chase-confidence,11/21/2023,01C706008D484E639F3C1E8029E096CA,178,1301153,5000.4,51,chase,1,1,2,Hit,TRUE,TRUE
6,detect-chase-confidence,11/21/2023,01C706008D484E639F3C1E8029E096CA,179,1308441,4960.9,231,chase,1,1,3,Hit,TRUE,TRUE
6,detect-chase-confidence,11/21/2023,01C706008D484E639F3C1E8029E096CA,180,1314587,4997.5,265,chase,1,1,3,Hit,TRUE,TRUE
6,detect-chase-confidence,11/21/2023,01C706008D484E639F3C1E8029E096CA,181,1321963,5884.9,38,chase,0,0,1,Ms,TRUE,TRUE
6,detect-chase-confidence,11/21/2023,01C706008D484E639F3C1E8029E096CA,182,1328190,4896.1,200,chase,1,1,4,Hit,TRUE,TRUE
6,detect-chase-confidence,11/21/2023,01C706008D484E639F3C1E8029E096CA,183,1334414,5053.4,156,mirror,0,1,2,CR,TRUE,TRUE
6,detect-chase-confidence,11/21/2023,01C706008D484E639F3C1E8029E096CA,184,1340785,5277.2,106,mirror,0,1,1,CR,TRUE,TRUE
6,detect-chase-confidence,11/21/2023,01C706008D484E639F3C1E8029E096CA,185,1347549,5453.9,51,mirror,0,1,1,CR,TRUE,TRUE
6,detect-chase-confidence,11/21/2023,01C706008D484E639F3C1E8029E096CA,186,1354347,5641,112,chase,1,1,1,Hit,TRUE,TRUE
6,detect-chase-confidence,11/21/2023,01C706008D484E639F3C1E8029E096CA,187,1361394,5776.7,279,mirror,0,1,1,CR,TRUE,TRUE
6,detect-chase-confidence,11/21/2023,01C706008D484E639F3C1E8029E096CA,188,1367523,4950.4,147,chase,1,1,4,Hit,TRUE,TRUE
6,detect-chase-confidence,11/21/2023,01C706008D484E639F3C1E8029E096CA,189,1374104,5209.3,46,mirror,0,1,1,CR,TRUE,TRUE
6,detect-chase-confidence,11/21/2023,01C706008D484E639F3C1E8029E096CA,190,1380684,5264.5,212,mirror,0,1,1,CR,TRUE,TRUE
6,detect-chase-confidence,11/21/2023,01C706008D484E639F3C1E8029E096CA,191,1387230,5246.9,180,mirror,0,1,1,CR,TRUE,TRUE
6,detect-chase-confidence,11/21/2023,01C706008D484E639F3C1E8029E096CA,192,1393620,5131.1,107,chase,1,1,3,Hit,TRUE,TRUE
6,detect-chase-confidence,11/21/2023,01C706008D484E639F3C1E8029E096CA,193,1401315,6376.9,104,mirror,1,0,1,FA,TRUE,TRUE
6,detect-chase-confidence,11/21/2023,01C706008D484E639F3C1E8029E096CA,194,1407609,5111,67,mirror,1,0,3,FA,TRUE,TRUE
6,detect-chase-confidence,11/21/2023,01C706008D484E639F3C1E8029E096CA,195,1414122,4965.2,235,chase,1,1,5,Hit,TRUE,TRUE
6,detect-chase-confidence,11/21/2023,01C706008D484E639F3C1E8029E096CA,196,1420734,5111.7,238,chase,1,1,2,Hit,TRUE,TRUE
6,detect-chase-confidence,11/21/2023,01C706008D484E639F3C1E8029E096CA,197,1426801,4870.3,118,chase,1,1,4,Hit,TRUE,TRUE
6,detect-chase-confidence,11/21/2023,01C706008D484E639F3C1E8029E096CA,198,1433594,5613.6,8,mirror,1,0,1,FA,TRUE,TRUE
6,detect-chase-confidence,11/21/2023,01C706008D484E639F3C1E8029E096CA,199,1439946,5113.3,250,chase,0,0,1,Ms,TRUE,TRUE
6,detect-chase-confidence,11/21/2023,01C706008D484E639F3C1E8029E096CA,200,1446295,5358,293,mirror,0,1,1,CR,TRUE,TRUE
6,detect-chase-confidence,11/21/2023,057CE07F783F497D8CA8F2CB12CF3DB9,1,54260,2592,264,mirror,1,0,NA,FA,TRUE,TRUE
6,detect-chase-confidence,11/21/2023,057CE07F783F497D8CA8F2CB12CF3DB9,2,57730,2464,215,chase,1,1,NA,Hit,TRUE,TRUE
6,detect-chase-confidence,11/21/2023,057CE07F783F497D8CA8F2CB12CF3DB9,3,60544,1809,259,chase,0,0,NA,Ms,TRUE,TRUE
6,detect-chase-confidence,11/21/2023,057CE07F783F497D8CA8F2CB12CF3DB9,4,67421,5870,89,chase,1,1,NA,Hit,TRUE,TRUE
6,detect-chase-confidence,11/21/2023,057CE07F783F497D8CA8F2CB12CF3DB9,5,72682,4255,37,chase,1,1,NA,Hit,TRUE,TRUE
6,detect-chase-confidence,11/21/2023,057CE07F783F497D8CA8F2CB12CF3DB9,6,76331,2642,27,chase,0,0,NA,Ms,TRUE,TRUE
6,detect-chase-confidence,11/21/2023,057CE07F783F497D8CA8F2CB12CF3DB9,7,82357,5020,27,mirror,1,0,NA,FA,TRUE,TRUE
6,detect-chase-confidence,11/21/2023,057CE07F783F497D8CA8F2CB12CF3DB9,8,88366,5003,197,mirror,0,1,NA,CR,TRUE,TRUE
6,detect-chase-confidence,11/21/2023,057CE07F783F497D8CA8F2CB12CF3DB9,9,94223,4851,89,mirror,1,0,NA,FA,TRUE,TRUE
6,detect-chase-confidence,11/21/2023,057CE07F783F497D8CA8F2CB12CF3DB9,10,100254,5025,139,chase,0,0,NA,Ms,TRUE,TRUE
6,detect-chase-confidence,11/21/2023,057CE07F783F497D8CA8F2CB12CF3DB9,11,107209,5949,215,mirror,0,1,NA,CR,TRUE,TRUE
6,detect-chase-confidence,11/21/2023,057CE07F783F497D8CA8F2CB12CF3DB9,12,110894,2678,259,mirror,1,0,NA,FA,TRUE,TRUE
6,detect-chase-confidence,11/21/2023,057CE07F783F497D8CA8F2CB12CF3DB9,13,115117,3216,139,mirror,0,1,NA,CR,TRUE,TRUE
6,detect-chase-confidence,11/21/2023,057CE07F783F497D8CA8F2CB12CF3DB9,14,120347,4225,244,mirror,0,1,NA,CR,TRUE,TRUE
6,detect-chase-confidence,11/21/2023,057CE07F783F497D8CA8F2CB12CF3DB9,15,125324,3970,174,mirror,0,1,NA,CR,TRUE,TRUE
6,detect-chase-confidence,11/21/2023,057CE07F783F497D8CA8F2CB12CF3DB9,16,130478,4148,244,chase,1,1,NA,Hit,TRUE,TRUE
6,detect-chase-confidence,11/21/2023,057CE07F783F497D8CA8F2CB12CF3DB9,17,134318,2834,37,mirror,0,1,NA,CR,TRUE,TRUE
6,detect-chase-confidence,11/21/2023,057CE07F783F497D8CA8F2CB12CF3DB9,18,138463,3140,264,chase,1,1,NA,Hit,TRUE,TRUE
6,detect-chase-confidence,11/21/2023,057CE07F783F497D8CA8F2CB12CF3DB9,19,142344,2875,174,chase,1,1,NA,Hit,TRUE,TRUE
6,detect-chase-confidence,11/21/2023,057CE07F783F497D8CA8F2CB12CF3DB9,20,148459,5110,197,chase,0,0,NA,Ms,TRUE,TRUE
6,detect-chase-confidence,11/21/2023,057CE07F783F497D8CA8F2CB12CF3DB9,21,194367,4832,204,mirror,0,1,3,CR,TRUE,TRUE
6,detect-chase-confidence,11/21/2023,057CE07F783F497D8CA8F2CB12CF3DB9,22,205951,5201,212,mirror,0,1,2,CR,TRUE,TRUE
6,detect-chase-confidence,11/21/2023,057CE07F783F497D8CA8F2CB12CF3DB9,23,213106,3396,275,chase,0,0,2,Ms,TRUE,TRUE
6,detect-chase-confidence,11/21/2023,057CE07F783F497D8CA8F2CB12CF3DB9,24,219929,4608,132,chase,0,0,2,Ms,TRUE,TRUE
6,detect-chase-confidence,11/21/2023,057CE07F783F497D8CA8F2CB12CF3DB9,25,227071,5394,55,mirror,0,1,2,CR,TRUE,TRUE
6,detect-chase-confidence,11/21/2023,057CE07F783F497D8CA8F2CB12CF3DB9,26,234798,6101,82,chase,0,0,3,Ms,TRUE,TRUE
6,detect-chase-confidence,11/21/2023,057CE07F783F497D8CA8F2CB12CF3DB9,27,241829,5187,190,mirror,0,1,4,CR,TRUE,TRUE
6,detect-chase-confidence,11/21/2023,057CE07F783F497D8CA8F2CB12CF3DB9,28,247694,3863,237,chase,0,0,4,Ms,TRUE,TRUE
6,detect-chase-confidence,11/21/2023,057CE07F783F497D8CA8F2CB12CF3DB9,29,253517,4378,263,chase,1,1,4,Hit,TRUE,TRUE
6,detect-chase-confidence,11/21/2023,057CE07F783F497D8CA8F2CB12CF3DB9,30,261978,6745,241,mirror,0,1,3,CR,TRUE,TRUE
6,detect-chase-confidence,11/21/2023,057CE07F783F497D8CA8F2CB12CF3DB9,31,270403,6662,3,chase,0,0,3,Ms,TRUE,TRUE
6,detect-chase-confidence,11/21/2023,057CE07F783F497D8CA8F2CB12CF3DB9,32,275648,3739,204,chase,1,1,5,Hit,TRUE,TRUE
6,detect-chase-confidence,11/21/2023,057CE07F783F497D8CA8F2CB12CF3DB9,33,283559,6025,132,mirror,1,0,4,FA,TRUE,TRUE
6,detect-chase-confidence,11/21/2023,057CE07F783F497D8CA8F2CB12CF3DB9,34,288010,3163,190,chase,0,0,3,Ms,TRUE,TRUE
6,detect-chase-confidence,11/21/2023,057CE07F783F497D8CA8F2CB12CF3DB9,35,293861,4279,164,chase,1,1,4,Hit,TRUE,TRUE
6,detect-chase-confidence,11/21/2023,057CE07F783F497D8CA8F2CB12CF3DB9,36,298315,2879,23,chase,1,1,4,Hit,TRUE,TRUE
6,detect-chase-confidence,11/21/2023,057CE07F783F497D8CA8F2CB12CF3DB9,37,303842,4136,159,chase,1,1,4,Hit,TRUE,TRUE
6,detect-chase-confidence,11/21/2023,057CE07F783F497D8CA8F2CB12CF3DB9,38,310131,4971,213,chase,1,1,4,Hit,TRUE,TRUE
6,detect-chase-confidence,11/21/2023,057CE07F783F497D8CA8F2CB12CF3DB9,39,315202,3778,7,chase,1,1,4,Hit,TRUE,TRUE
6,detect-chase-confidence,11/21/2023,057CE07F783F497D8CA8F2CB12CF3DB9,40,322176,5804,46,chase,0,0,3,Ms,TRUE,TRUE
6,detect-chase-confidence,11/21/2023,057CE07F783F497D8CA8F2CB12CF3DB9,41,328992,5004,163,mirror,0,1,3,CR,TRUE,TRUE
6,detect-chase-confidence,11/21/2023,057CE07F783F497D8CA8F2CB12CF3DB9,42,336479,5769,213,mirror,0,1,3,CR,TRUE,TRUE
6,detect-chase-confidence,11/21/2023,057CE07F783F497D8CA8F2CB12CF3DB9,43,339393,1807,50,chase,1,1,4,Hit,TRUE,TRUE
6,detect-chase-confidence,11/21/2023,057CE07F783F497D8CA8F2CB12CF3DB9,44,346682,5706,145,chase,0,0,3,Ms,TRUE,TRUE
6,detect-chase-confidence,11/21/2023,057CE07F783F497D8CA8F2CB12CF3DB9,45,353540,5115,293,chase,1,1,4,Hit,TRUE,TRUE
6,detect-chase-confidence,11/21/2023,057CE07F783F497D8CA8F2CB12CF3DB9,46,360467,5162,297,mirror,0,1,3,CR,TRUE,TRUE
6,detect-chase-confidence,11/21/2023,057CE07F783F497D8CA8F2CB12CF3DB9,47,365335,3405,54,chase,0,0,3,Ms,TRUE,TRUE
6,detect-chase-confidence,11/21/2023,057CE07F783F497D8CA8F2CB12CF3DB9,48,371863,5283,269,chase,0,0,3,Ms,TRUE,TRUE
6,detect-chase-confidence,11/21/2023,057CE07F783F497D8CA8F2CB12CF3DB9,49,377272,4375,63,chase,1,1,5,Hit,TRUE,TRUE
6,detect-chase-confidence,11/21/2023,057CE07F783F497D8CA8F2CB12CF3DB9,50,381342,2621,162,chase,1,1,5,Hit,TRUE,TRUE
6,detect-chase-confidence,11/21/2023,057CE07F783F497D8CA8F2CB12CF3DB9,51,387060,4383,250,mirror,0,1,3,CR,TRUE,TRUE
6,detect-chase-confidence,11/21/2023,057CE07F783F497D8CA8F2CB12CF3DB9,52,393894,5573,176,mirror,0,1,3,CR,TRUE,TRUE
6,detect-chase-confidence,11/21/2023,057CE07F783F497D8CA8F2CB12CF3DB9,53,402007,4827,60,mirror,0,1,3,CR,TRUE,TRUE
6,detect-chase-confidence,11/21/2023,057CE07F783F497D8CA8F2CB12CF3DB9,54,407686,4458,297,chase,1,1,4,Hit,TRUE,TRUE
6,detect-chase-confidence,11/21/2023,057CE07F783F497D8CA8F2CB12CF3DB9,55,412792,3609,191,chase,0,0,3,Ms,TRUE,TRUE
6,detect-chase-confidence,11/21/2023,057CE07F783F497D8CA8F2CB12CF3DB9,56,419043,5076,155,mirror,0,1,3,CR,TRUE,TRUE
6,detect-chase-confidence,11/21/2023,057CE07F783F497D8CA8F2CB12CF3DB9,57,424827,4606,86,mirror,0,1,3,CR,TRUE,TRUE
6,detect-chase-confidence,11/21/2023,057CE07F783F497D8CA8F2CB12CF3DB9,58,430223,3352,31,chase,1,1,5,Hit,TRUE,TRUE
6,detect-chase-confidence,11/21/2023,057CE07F783F497D8CA8F2CB12CF3DB9,59,435394,3327,236,chase,0,0,3,Ms,TRUE,TRUE
6,detect-chase-confidence,11/21/2023,057CE07F783F497D8CA8F2CB12CF3DB9,60,441174,4655,160,chase,0,0,3,Ms,TRUE,TRUE
6,detect-chase-confidence,11/21/2023,057CE07F783F497D8CA8F2CB12CF3DB9,61,448331,5999,176,chase,0,0,3,Ms,TRUE,TRUE
6,detect-chase-confidence,11/21/2023,057CE07F783F497D8CA8F2CB12CF3DB9,62,454407,4878,289,mirror,0,1,3,CR,TRUE,TRUE
6,detect-chase-confidence,11/21/2023,057CE07F783F497D8CA8F2CB12CF3DB9,63,460992,5333,82,mirror,0,1,3,CR,TRUE,TRUE
6,detect-chase-confidence,11/21/2023,057CE07F783F497D8CA8F2CB12CF3DB9,64,466116,3976,257,mirror,0,1,3,CR,TRUE,TRUE
6,detect-chase-confidence,11/21/2023,057CE07F783F497D8CA8F2CB12CF3DB9,65,472056,4711,251,mirror,0,1,3,CR,TRUE,TRUE
6,detect-chase-confidence,11/21/2023,057CE07F783F497D8CA8F2CB12CF3DB9,66,478477,5092,279,mirror,0,1,3,CR,TRUE,TRUE
6,detect-chase-confidence,11/21/2023,057CE07F783F497D8CA8F2CB12CF3DB9,67,483101,3409,187,mirror,1,0,4,FA,TRUE,TRUE
6,detect-chase-confidence,11/21/2023,057CE07F783F497D8CA8F2CB12CF3DB9,68,488046,3004,291,chase,1,1,5,Hit,TRUE,TRUE
6,detect-chase-confidence,11/21/2023,057CE07F783F497D8CA8F2CB12CF3DB9,69,492028,2579,285,chase,1,1,5,Hit,TRUE,TRUE
6,detect-chase-confidence,11/21/2023,057CE07F783F497D8CA8F2CB12CF3DB9,70,497757,4512,237,mirror,0,1,3,CR,TRUE,TRUE
6,detect-chase-confidence,11/21/2023,057CE07F783F497D8CA8F2CB12CF3DB9,71,503842,4972,62,chase,0,0,3,Ms,TRUE,TRUE
6,detect-chase-confidence,11/21/2023,057CE07F783F497D8CA8F2CB12CF3DB9,72,510679,4622,159,mirror,0,1,3,CR,TRUE,TRUE
6,detect-chase-confidence,11/21/2023,057CE07F783F497D8CA8F2CB12CF3DB9,73,516477,4581,160,mirror,0,1,3,CR,TRUE,TRUE
6,detect-chase-confidence,11/21/2023,057CE07F783F497D8CA8F2CB12CF3DB9,74,520501,2873,18,chase,1,1,5,Hit,TRUE,TRUE
6,detect-chase-confidence,11/21/2023,057CE07F783F497D8CA8F2CB12CF3DB9,75,525841,4087,241,chase,1,1,5,Hit,TRUE,TRUE
6,detect-chase-confidence,11/21/2023,057CE07F783F497D8CA8F2CB12CF3DB9,76,529994,2711,86,chase,1,1,5,Hit,TRUE,TRUE
6,detect-chase-confidence,11/21/2023,057CE07F783F497D8CA8F2CB12CF3DB9,77,535879,4678,177,chase,0,0,3,Ms,TRUE,TRUE
6,detect-chase-confidence,11/21/2023,057CE07F783F497D8CA8F2CB12CF3DB9,78,541594,4501,191,mirror,0,1,3,CR,TRUE,TRUE
6,detect-chase-confidence,11/21/2023,057CE07F783F497D8CA8F2CB12CF3DB9,79,548014,5129,243,mirror,0,1,3,CR,TRUE,TRUE
6,detect-chase-confidence,11/21/2023,057CE07F783F497D8CA8F2CB12CF3DB9,80,552728,3447,60,chase,0,0,4,Ms,TRUE,TRUE
6,detect-chase-confidence,11/21/2023,057CE07F783F497D8CA8F2CB12CF3DB9,81,558933,5021,119,mirror,0,1,4,CR,TRUE,TRUE
6,detect-chase-confidence,11/21/2023,057CE07F783F497D8CA8F2CB12CF3DB9,82,564827,4631,251,chase,0,0,3,Ms,TRUE,TRUE
6,detect-chase-confidence,11/21/2023,057CE07F783F497D8CA8F2CB12CF3DB9,83,570612,4676,66,chase,1,1,4,Hit,TRUE,TRUE
6,detect-chase-confidence,11/21/2023,057CE07F783F497D8CA8F2CB12CF3DB9,84,577797,5081,53,mirror,1,0,4,FA,TRUE,TRUE
6,detect-chase-confidence,11/21/2023,057CE07F783F497D8CA8F2CB12CF3DB9,85,581949,3095,181,chase,1,1,4,Hit,TRUE,TRUE
6,detect-chase-confidence,11/21/2023,057CE07F783F497D8CA8F2CB12CF3DB9,86,587617,4507,182,chase,0,0,3,Ms,TRUE,TRUE
6,detect-chase-confidence,11/21/2023,057CE07F783F497D8CA8F2CB12CF3DB9,87,592260,3500,87,mirror,0,1,3,CR,TRUE,TRUE
6,detect-chase-confidence,11/21/2023,057CE07F783F497D8CA8F2CB12CF3DB9,88,602210,3645,284,chase,0,0,3,Ms,TRUE,TRUE
6,detect-chase-confidence,11/21/2023,057CE07F783F497D8CA8F2CB12CF3DB9,89,608136,4873,177,mirror,0,1,3,CR,TRUE,TRUE
6,detect-chase-confidence,11/21/2023,057CE07F783F497D8CA8F2CB12CF3DB9,90,614748,5049,6,mirror,1,0,4,FA,TRUE,TRUE
6,detect-chase-confidence,11/21/2023,057CE07F783F497D8CA8F2CB12CF3DB9,91,618503,2340,101,chase,1,1,4,Hit,TRUE,TRUE
6,detect-chase-confidence,11/21/2023,057CE07F783F497D8CA8F2CB12CF3DB9,92,623882,4080,10,chase,1,1,4,Hit,TRUE,TRUE
6,detect-chase-confidence,11/21/2023,057CE07F783F497D8CA8F2CB12CF3DB9,93,631178,5872,79,chase,0,0,3,Ms,TRUE,TRUE
6,detect-chase-confidence,11/21/2023,057CE07F783F497D8CA8F2CB12CF3DB9,94,637896,5451,182,mirror,1,0,3,FA,TRUE,TRUE
6,detect-chase-confidence,11/21/2023,057CE07F783F497D8CA8F2CB12CF3DB9,95,643969,4794,8,mirror,0,1,3,CR,TRUE,TRUE
6,detect-chase-confidence,11/21/2023,057CE07F783F497D8CA8F2CB12CF3DB9,96,650160,4789,54,mirror,0,1,3,CR,TRUE,TRUE
6,detect-chase-confidence,11/21/2023,057CE07F783F497D8CA8F2CB12CF3DB9,97,657005,5734,10,mirror,0,1,3,CR,TRUE,TRUE
6,detect-chase-confidence,11/21/2023,057CE07F783F497D8CA8F2CB12CF3DB9,98,663190,5249,7,mirror,0,1,3,CR,TRUE,TRUE
6,detect-chase-confidence,11/21/2023,057CE07F783F497D8CA8F2CB12CF3DB9,99,668480,4183,30,mirror,0,1,3,CR,TRUE,TRUE
6,detect-chase-confidence,11/21/2023,057CE07F783F497D8CA8F2CB12CF3DB9,100,671188,1626,6,chase,1,1,3,Hit,TRUE,TRUE
6,detect-chase-confidence,11/21/2023,057CE07F783F497D8CA8F2CB12CF3DB9,101,679369,5918,151,mirror,0,1,3,CR,TRUE,TRUE
6,detect-chase-confidence,11/21/2023,057CE07F783F497D8CA8F2CB12CF3DB9,102,684673,4222,163,chase,1,1,3,Hit,TRUE,TRUE
6,detect-chase-confidence,11/21/2023,057CE07F783F497D8CA8F2CB12CF3DB9,103,688462,2451,236,mirror,1,0,4,FA,TRUE,TRUE
6,detect-chase-confidence,11/21/2023,057CE07F783F497D8CA8F2CB12CF3DB9,104,693177,3584,118,chase,1,1,4,Hit,TRUE,TRUE
6,detect-chase-confidence,11/21/2023,057CE07F783F497D8CA8F2CB12CF3DB9,105,700175,5581,257,chase,0,0,3,Ms,TRUE,TRUE
6,detect-chase-confidence,11/21/2023,057CE07F783F497D8CA8F2CB12CF3DB9,106,707605,5229,188,mirror,1,0,3,FA,TRUE,TRUE
6,detect-chase-confidence,11/21/2023,057CE07F783F497D8CA8F2CB12CF3DB9,107,712615,3294,280,mirror,1,0,3,FA,TRUE,TRUE
6,detect-chase-confidence,11/21/2023,057CE07F783F497D8CA8F2CB12CF3DB9,108,719059,5411,30,chase,0,0,3,Ms,TRUE,TRUE
6,detect-chase-confidence,11/21/2023,057CE07F783F497D8CA8F2CB12CF3DB9,109,725690,5357,58,mirror,1,0,4,FA,TRUE,TRUE
6,detect-chase-confidence,11/21/2023,057CE07F783F497D8CA8F2CB12CF3DB9,110,730808,4090,232,mirror,0,1,3,CR,TRUE,TRUE
6,detect-chase-confidence,11/21/2023,057CE07F783F497D8CA8F2CB12CF3DB9,111,737260,5317,63,mirror,0,1,3,CR,TRUE,TRUE
6,detect-chase-confidence,11/21/2023,057CE07F783F497D8CA8F2CB12CF3DB9,112,742840,4519,79,mirror,0,1,3,CR,TRUE,TRUE
6,detect-chase-confidence,11/21/2023,057CE07F783F497D8CA8F2CB12CF3DB9,113,748210,4278,31,mirror,1,0,4,FA,TRUE,TRUE
6,detect-chase-confidence,11/21/2023,057CE07F783F497D8CA8F2CB12CF3DB9,114,752036,2414,19,mirror,1,0,4,FA,TRUE,TRUE
6,detect-chase-confidence,11/21/2023,057CE07F783F497D8CA8F2CB12CF3DB9,115,759552,6237,187,chase,0,0,3,Ms,TRUE,TRUE
6,detect-chase-confidence,11/21/2023,057CE07F783F497D8CA8F2CB12CF3DB9,116,764747,3558,188,chase,0,0,3,Ms,TRUE,TRUE
6,detect-chase-confidence,11/21/2023,057CE07F783F497D8CA8F2CB12CF3DB9,117,768779,2882,199,chase,1,1,4,Hit,TRUE,TRUE
6,detect-chase-confidence,11/21/2023,057CE07F783F497D8CA8F2CB12CF3DB9,118,773465,3401,253,mirror,1,0,5,FA,TRUE,TRUE
6,detect-chase-confidence,11/21/2023,057CE07F783F497D8CA8F2CB12CF3DB9,119,779344,4907,148,chase,1,1,4,Hit,TRUE,TRUE
6,detect-chase-confidence,11/21/2023,057CE07F783F497D8CA8F2CB12CF3DB9,120,785486,4791,47,chase,0,0,3,Ms,TRUE,TRUE
6,detect-chase-confidence,11/21/2023,057CE07F783F497D8CA8F2CB12CF3DB9,121,790960,4449,256,mirror,0,1,4,CR,TRUE,TRUE
6,detect-chase-confidence,11/21/2023,057CE07F783F497D8CA8F2CB12CF3DB9,122,797969,4738,116,mirror,0,1,3,CR,TRUE,TRUE
6,detect-chase-confidence,11/21/2023,057CE07F783F497D8CA8F2CB12CF3DB9,123,804656,5506,148,mirror,0,1,3,CR,TRUE,TRUE
6,detect-chase-confidence,11/21/2023,057CE07F783F497D8CA8F2CB12CF3DB9,124,811207,5514,85,mirror,0,1,3,CR,TRUE,TRUE
6,detect-chase-confidence,11/21/2023,057CE07F783F497D8CA8F2CB12CF3DB9,125,817457,5216,101,mirror,1,0,3,FA,TRUE,TRUE
6,detect-chase-confidence,11/21/2023,057CE07F783F497D8CA8F2CB12CF3DB9,126,823689,5137,274,chase,1,1,3,Hit,TRUE,TRUE
6,detect-chase-confidence,11/21/2023,057CE07F783F497D8CA8F2CB12CF3DB9,127,828954,4346,119,chase,1,1,3,Hit,TRUE,TRUE
6,detect-chase-confidence,11/21/2023,057CE07F783F497D8CA8F2CB12CF3DB9,128,835522,4850,135,mirror,1,0,3,FA,TRUE,TRUE
6,detect-chase-confidence,11/21/2023,057CE07F783F497D8CA8F2CB12CF3DB9,129,841211,4702,285,mirror,1,0,3,FA,TRUE,TRUE
6,detect-chase-confidence,11/21/2023,057CE07F783F497D8CA8F2CB12CF3DB9,130,847222,4898,58,chase,0,0,3,Ms,TRUE,TRUE
6,detect-chase-confidence,11/21/2023,057CE07F783F497D8CA8F2CB12CF3DB9,131,854195,5516,181,mirror,0,1,3,CR,TRUE,TRUE
6,detect-chase-confidence,11/21/2023,057CE07F783F497D8CA8F2CB12CF3DB9,132,857457,2266,75,mirror,0,1,3,CR,TRUE,TRUE
6,detect-chase-confidence,11/21/2023,057CE07F783F497D8CA8F2CB12CF3DB9,133,863189,4756,32,mirror,0,1,3,CR,TRUE,TRUE
6,detect-chase-confidence,11/21/2023,057CE07F783F497D8CA8F2CB12CF3DB9,134,869404,5190,87,chase,1,1,3,Hit,TRUE,TRUE
6,detect-chase-confidence,11/21/2023,057CE07F783F497D8CA8F2CB12CF3DB9,135,875220,4645,154,mirror,1,0,3,FA,TRUE,TRUE
6,detect-chase-confidence,11/21/2023,057CE07F783F497D8CA8F2CB12CF3DB9,136,880872,4552,166,chase,0,0,3,Ms,TRUE,TRUE
6,detect-chase-confidence,11/21/2023,057CE07F783F497D8CA8F2CB12CF3DB9,137,884407,2486,8,chase,1,1,4,Hit,TRUE,TRUE
6,detect-chase-confidence,11/21/2023,057CE07F783F497D8CA8F2CB12CF3DB9,138,890538,4962,3,mirror,0,1,3,CR,TRUE,TRUE
6,detect-chase-confidence,11/21/2023,057CE07F783F497D8CA8F2CB12CF3DB9,139,896505,4988,18,mirror,0,1,3,CR,TRUE,TRUE
6,detect-chase-confidence,11/21/2023,057CE07F783F497D8CA8F2CB12CF3DB9,140,904760,7268,291,mirror,0,1,3,CR,TRUE,TRUE
6,detect-chase-confidence,11/21/2023,057CE07F783F497D8CA8F2CB12CF3DB9,141,911535,5640,212,chase,1,1,2,Hit,TRUE,TRUE
6,detect-chase-confidence,11/21/2023,057CE07F783F497D8CA8F2CB12CF3DB9,142,915620,3088,193,mirror,1,0,3,FA,TRUE,TRUE
6,detect-chase-confidence,11/21/2023,057CE07F783F497D8CA8F2CB12CF3DB9,143,922040,5561,32,chase,0,0,3,Ms,TRUE,TRUE
6,detect-chase-confidence,11/21/2023,057CE07F783F497D8CA8F2CB12CF3DB9,144,928401,5258,280,chase,1,1,3,Hit,TRUE,TRUE
6,detect-chase-confidence,11/21/2023,057CE07F783F497D8CA8F2CB12CF3DB9,145,934432,5205,263,mirror,0,1,3,CR,TRUE,TRUE
6,detect-chase-confidence,11/21/2023,057CE07F783F497D8CA8F2CB12CF3DB9,146,940324,4259,142,chase,0,0,3,Ms,TRUE,TRUE
6,detect-chase-confidence,11/21/2023,057CE07F783F497D8CA8F2CB12CF3DB9,147,944229,2708,135,chase,1,1,3,Hit,TRUE,TRUE
6,detect-chase-confidence,11/21/2023,057CE07F783F497D8CA8F2CB12CF3DB9,148,949967,4544,154,chase,1,1,4,Hit,TRUE,TRUE
6,detect-chase-confidence,11/21/2023,057CE07F783F497D8CA8F2CB12CF3DB9,149,955468,4612,217,chase,1,1,4,Hit,TRUE,TRUE
6,detect-chase-confidence,11/21/2023,057CE07F783F497D8CA8F2CB12CF3DB9,150,958498,2148,256,chase,1,1,4,Hit,TRUE,TRUE
6,detect-chase-confidence,11/21/2023,057CE07F783F497D8CA8F2CB12CF3DB9,151,963997,4385,269,mirror,0,1,4,CR,TRUE,TRUE
6,detect-chase-confidence,11/21/2023,057CE07F783F497D8CA8F2CB12CF3DB9,152,968480,2916,85,chase,1,1,4,Hit,TRUE,TRUE
6,detect-chase-confidence,11/21/2023,057CE07F783F497D8CA8F2CB12CF3DB9,153,975102,5669,155,chase,1,1,4,Hit,TRUE,TRUE
6,detect-chase-confidence,11/21/2023,057CE07F783F497D8CA8F2CB12CF3DB9,154,980510,4595,199,mirror,1,0,3,FA,TRUE,TRUE
6,detect-chase-confidence,11/21/2023,057CE07F783F497D8CA8F2CB12CF3DB9,155,985959,4380,142,mirror,0,1,3,CR,TRUE,TRUE
6,detect-chase-confidence,11/21/2023,057CE07F783F497D8CA8F2CB12CF3DB9,156,992337,5270,53,chase,1,1,3,Hit,TRUE,TRUE
6,detect-chase-confidence,11/21/2023,057CE07F783F497D8CA8F2CB12CF3DB9,157,996280,2942,293,mirror,1,0,4,FA,TRUE,TRUE
6,detect-chase-confidence,11/21/2023,057CE07F783F497D8CA8F2CB12CF3DB9,158,1003717,5936,284,mirror,0,1,3,CR,TRUE,TRUE
6,detect-chase-confidence,11/21/2023,057CE07F783F497D8CA8F2CB12CF3DB9,159,1009506,4712,193,chase,1,1,3,Hit,TRUE,TRUE
6,detect-chase-confidence,11/21/2023,057CE07F783F497D8CA8F2CB12CF3DB9,160,1014259,3954,250,chase,1,1,4,Hit,TRUE,TRUE
6,detect-chase-confidence,11/21/2023,057CE07F783F497D8CA8F2CB12CF3DB9,161,1020573,5096,23,mirror,0,1,3,CR,TRUE,TRUE
6,detect-chase-confidence,11/21/2023,057CE07F783F497D8CA8F2CB12CF3DB9,162,1027670,5809,50,mirror,0,1,3,CR,TRUE,TRUE
6,detect-chase-confidence,11/21/2023,057CE07F783F497D8CA8F2CB12CF3DB9,163,1033742,5094,232,chase,0,0,3,Ms,TRUE,TRUE
6,detect-chase-confidence,11/21/2023,057CE07F783F497D8CA8F2CB12CF3DB9,164,1039905,5183,186,chase,0,0,3,Ms,TRUE,TRUE
6,detect-chase-confidence,11/21/2023,057CE07F783F497D8CA8F2CB12CF3DB9,165,1045836,4532,217,mirror,0,1,3,CR,TRUE,TRUE
6,detect-chase-confidence,11/21/2023,057CE07F783F497D8CA8F2CB12CF3DB9,166,1050607,3753,279,chase,1,1,3,Hit,TRUE,TRUE
6,detect-chase-confidence,11/21/2023,057CE07F783F497D8CA8F2CB12CF3DB9,167,1056974,5518,243,chase,0,0,2,Ms,TRUE,TRUE
6,detect-chase-confidence,11/21/2023,057CE07F783F497D8CA8F2CB12CF3DB9,168,1064086,4985,62,mirror,0,1,2,CR,TRUE,TRUE
6,detect-chase-confidence,11/21/2023,057CE07F783F497D8CA8F2CB12CF3DB9,169,1069646,4368,66,mirror,0,1,3,CR,TRUE,TRUE
6,detect-chase-confidence,11/21/2023,057CE07F783F497D8CA8F2CB12CF3DB9,170,1076760,5847,117,chase,0,0,3,Ms,TRUE,TRUE
6,detect-chase-confidence,11/21/2023,057CE07F783F497D8CA8F2CB12CF3DB9,171,1082771,4897,164,mirror,0,1,3,CR,TRUE,TRUE
6,detect-chase-confidence,11/21/2023,057CE07F783F497D8CA8F2CB12CF3DB9,172,1087500,3444,116,chase,1,1,4,Hit,TRUE,TRUE
6,detect-chase-confidence,11/21/2023,057CE07F783F497D8CA8F2CB12CF3DB9,173,1093700,4765,157,mirror,0,1,3,CR,TRUE,TRUE
6,detect-chase-confidence,11/21/2023,057CE07F783F497D8CA8F2CB12CF3DB9,174,1098244,3497,55,chase,1,1,4,Hit,TRUE,TRUE
6,detect-chase-confidence,11/21/2023,057CE07F783F497D8CA8F2CB12CF3DB9,175,1102630,3378,107,chase,1,1,5,Hit,TRUE,TRUE
6,detect-chase-confidence,11/21/2023,057CE07F783F497D8CA8F2CB12CF3DB9,176,1108411,4181,253,chase,1,1,4,Hit,TRUE,TRUE
6,detect-chase-confidence,11/21/2023,057CE07F783F497D8CA8F2CB12CF3DB9,177,1114373,4862,278,mirror,0,1,3,CR,TRUE,TRUE
6,detect-chase-confidence,11/21/2023,057CE07F783F497D8CA8F2CB12CF3DB9,178,1120752,5168,275,mirror,0,1,3,CR,TRUE,TRUE
6,detect-chase-confidence,11/21/2023,057CE07F783F497D8CA8F2CB12CF3DB9,179,1126382,4214,118,mirror,0,1,4,CR,TRUE,TRUE
6,detect-chase-confidence,11/21/2023,057CE07F783F497D8CA8F2CB12CF3DB9,180,1132807,5168,166,mirror,0,1,3,CR,TRUE,TRUE
6,detect-chase-confidence,11/21/2023,057CE07F783F497D8CA8F2CB12CF3DB9,181,1138942,5108,117,mirror,0,1,3,CR,TRUE,TRUE
6,detect-chase-confidence,11/21/2023,057CE07F783F497D8CA8F2CB12CF3DB9,182,1145225,5254,19,chase,1,1,3,Hit,TRUE,TRUE
6,detect-chase-confidence,11/21/2023,057CE07F783F497D8CA8F2CB12CF3DB9,183,1151091,4952,278,chase,0,0,3,Ms,TRUE,TRUE
6,detect-chase-confidence,11/21/2023,057CE07F783F497D8CA8F2CB12CF3DB9,184,1157920,5629,46,mirror,0,1,3,CR,TRUE,TRUE
6,detect-chase-confidence,11/21/2023,057CE07F783F497D8CA8F2CB12CF3DB9,185,1163560,4538,186,mirror,0,1,3,CR,TRUE,TRUE
6,detect-chase-confidence,11/21/2023,057CE07F783F497D8CA8F2CB12CF3DB9,186,1169277,4563,223,mirror,0,1,3,CR,TRUE,TRUE
6,detect-chase-confidence,11/21/2023,057CE07F783F497D8CA8F2CB12CF3DB9,187,1174212,3932,274,mirror,0,1,3,CR,TRUE,TRUE
6,detect-chase-confidence,11/21/2023,057CE07F783F497D8CA8F2CB12CF3DB9,188,1180803,5339,34,mirror,1,0,3,FA,TRUE,TRUE
6,detect-chase-confidence,11/21/2023,057CE07F783F497D8CA8F2CB12CF3DB9,189,1186251,3899,157,chase,1,1,4,Hit,TRUE,TRUE
6,detect-chase-confidence,11/21/2023,057CE07F783F497D8CA8F2CB12CF3DB9,190,1192138,4584,75,chase,1,1,4,Hit,TRUE,TRUE
6,detect-chase-confidence,11/21/2023,057CE07F783F497D8CA8F2CB12CF3DB9,191,1198655,5330,107,mirror,0,1,3,CR,TRUE,TRUE
6,detect-chase-confidence,11/21/2023,057CE07F783F497D8CA8F2CB12CF3DB9,192,1205410,5664,57,mirror,0,1,3,CR,TRUE,TRUE
6,detect-chase-confidence,11/21/2023,057CE07F783F497D8CA8F2CB12CF3DB9,193,1211475,5070,34,chase,0,0,3,Ms,TRUE,TRUE
6,detect-chase-confidence,11/21/2023,057CE07F783F497D8CA8F2CB12CF3DB9,194,1217504,4859,162,mirror,0,1,3,CR,TRUE,TRUE
6,detect-chase-confidence,11/21/2023,057CE07F783F497D8CA8F2CB12CF3DB9,195,1223635,4884,151,chase,0,0,3,Ms,TRUE,TRUE
6,detect-chase-confidence,11/21/2023,057CE07F783F497D8CA8F2CB12CF3DB9,196,1227841,3155,57,chase,1,1,3,Hit,TRUE,TRUE
6,detect-chase-confidence,11/21/2023,057CE07F783F497D8CA8F2CB12CF3DB9,197,1232637,3826,145,mirror,0,1,3,CR,TRUE,TRUE
6,detect-chase-confidence,11/21/2023,057CE07F783F497D8CA8F2CB12CF3DB9,198,1238370,4644,223,chase,0,0,4,Ms,TRUE,TRUE
6,detect-chase-confidence,11/21/2023,057CE07F783F497D8CA8F2CB12CF3DB9,199,1243291,3781,289,chase,1,1,3,Hit,TRUE,TRUE
6,detect-chase-confidence,11/21/2023,057CE07F783F497D8CA8F2CB12CF3DB9,200,1247060,2589,47,mirror,1,0,4,FA,TRUE,TRUE
6,detect-chase-confidence,11/21/2023,05FFEFEBBBF6454F97A3131D7A2969A0,1,94085,2266.4,297,mirror,0,1,NA,CR,TRUE,TRUE
6,detect-chase-confidence,11/21/2023,05FFEFEBBBF6454F97A3131D7A2969A0,2,96701,1579.1,48,mirror,0,1,NA,CR,TRUE,TRUE
6,detect-chase-confidence,11/21/2023,05FFEFEBBBF6454F97A3131D7A2969A0,3,99032,1316.4,268,mirror,0,1,NA,CR,TRUE,TRUE
6,detect-chase-confidence,11/21/2023,05FFEFEBBBF6454F97A3131D7A2969A0,4,101800,1736.7,130,mirror,0,1,NA,CR,TRUE,TRUE
6,detect-chase-confidence,11/21/2023,05FFEFEBBBF6454F97A3131D7A2969A0,5,104122,1300.6,30,chase,0,0,NA,Ms,TRUE,TRUE
6,detect-chase-confidence,11/21/2023,05FFEFEBBBF6454F97A3131D7A2969A0,6,107550,2397,89,chase,1,1,NA,Hit,TRUE,TRUE
6,detect-chase-confidence,11/21/2023,05FFEFEBBBF6454F97A3131D7A2969A0,7,110707,2134.4,33,mirror,0,1,NA,CR,TRUE,TRUE
6,detect-chase-confidence,11/21/2023,05FFEFEBBBF6454F97A3131D7A2969A0,8,112862,1139.6,283,chase,1,1,NA,Hit,TRUE,TRUE
6,detect-chase-confidence,11/21/2023,05FFEFEBBBF6454F97A3131D7A2969A0,9,115954,2082.2,183,chase,1,1,NA,Hit,TRUE,TRUE
6,detect-chase-confidence,11/21/2023,05FFEFEBBBF6454F97A3131D7A2969A0,10,119288,2317.5,297,chase,0,0,NA,Ms,TRUE,TRUE
6,detect-chase-confidence,11/21/2023,05FFEFEBBBF6454F97A3131D7A2969A0,11,122279,1980,30,mirror,1,0,NA,FA,TRUE,TRUE
6,detect-chase-confidence,11/21/2023,05FFEFEBBBF6454F97A3131D7A2969A0,12,125371,2075.3,130,chase,1,1,NA,Hit,TRUE,TRUE
6,detect-chase-confidence,11/21/2023,05FFEFEBBBF6454F97A3131D7A2969A0,13,128680,2278.6,5,chase,1,1,NA,Hit,TRUE,TRUE
6,detect-chase-confidence,11/21/2023,05FFEFEBBBF6454F97A3131D7A2969A0,14,132327,2628.9,183,mirror,0,1,NA,CR,TRUE,TRUE
6,detect-chase-confidence,11/21/2023,05FFEFEBBBF6454F97A3131D7A2969A0,15,136543,3196.2,268,chase,1,1,NA,Hit,TRUE,TRUE
6,detect-chase-confidence,11/21/2023,05FFEFEBBBF6454F97A3131D7A2969A0,16,140883,3317.6,283,mirror,0,1,NA,CR,TRUE,TRUE
6,detect-chase-confidence,11/21/2023,05FFEFEBBBF6454F97A3131D7A2969A0,17,145133,3235.6,5,mirror,0,1,NA,CR,TRUE,TRUE
6,detect-chase-confidence,11/21/2023,05FFEFEBBBF6454F97A3131D7A2969A0,18,148415,2257.8,33,chase,1,1,NA,Hit,TRUE,TRUE
6,detect-chase-confidence,11/21/2023,05FFEFEBBBF6454F97A3131D7A2969A0,19,153301,3836.6,48,chase,1,1,NA,Hit,TRUE,TRUE
6,detect-chase-confidence,11/21/2023,05FFEFEBBBF6454F97A3131D7A2969A0,20,156794,2477.3,89,mirror,1,0,NA,FA,TRUE,TRUE
6,detect-chase-confidence,11/21/2023,05FFEFEBBBF6454F97A3131D7A2969A0,21,180906,2110.3,123,chase,1,1,3,Hit,TRUE,TRUE
6,detect-chase-confidence,11/21/2023,05FFEFEBBBF6454F97A3131D7A2969A0,22,187976,3223.7,285,chase,1,1,5,Hit,TRUE,TRUE
6,detect-chase-confidence,11/21/2023,05FFEFEBBBF6454F97A3131D7A2969A0,23,193706,3580,238,mirror,0,1,5,CR,TRUE,TRUE
6,detect-chase-confidence,11/21/2023,05FFEFEBBBF6454F97A3131D7A2969A0,24,199386,3099.2,35,chase,1,1,5,Hit,TRUE,TRUE
6,detect-chase-confidence,11/21/2023,05FFEFEBBBF6454F97A3131D7A2969A0,25,204217,2750.2,186,mirror,1,0,3,FA,TRUE,TRUE
6,detect-chase-confidence,11/21/2023,05FFEFEBBBF6454F97A3131D7A2969A0,26,208986,2206.3,49,chase,1,1,5,Hit,TRUE,TRUE
6,detect-chase-confidence,11/21/2023,05FFEFEBBBF6454F97A3131D7A2969A0,27,214911,4157.3,274,chase,1,1,5,Hit,TRUE,TRUE
6,detect-chase-confidence,11/21/2023,05FFEFEBBBF6454F97A3131D7A2969A0,28,220576,2844.4,275,mirror,0,1,4,CR,TRUE,TRUE
6,detect-chase-confidence,11/21/2023,05FFEFEBBBF6454F97A3131D7A2969A0,29,228219,5759.9,44,chase,0,0,3,Ms,TRUE,TRUE
6,detect-chase-confidence,11/21/2023,05FFEFEBBBF6454F97A3131D7A2969A0,30,234675,3758.7,13,chase,1,1,4,Hit,TRUE,TRUE
6,detect-chase-confidence,11/21/2023,05FFEFEBBBF6454F97A3131D7A2969A0,31,240366,3920.1,84,chase,1,1,5,Hit,TRUE,TRUE
6,detect-chase-confidence,11/21/2023,05FFEFEBBBF6454F97A3131D7A2969A0,32,245219,3132.8,159,mirror,0,1,5,CR,TRUE,TRUE
6,detect-chase-confidence,11/21/2023,05FFEFEBBBF6454F97A3131D7A2969A0,33,250301,3138.3,252,mirror,1,0,3,FA,TRUE,TRUE
6,detect-chase-confidence,11/21/2023,05FFEFEBBBF6454F97A3131D7A2969A0,34,257012,4160.1,84,mirror,0,1,4,CR,TRUE,TRUE
6,detect-chase-confidence,11/21/2023,05FFEFEBBBF6454F97A3131D7A2969A0,35,262535,3361.2,15,chase,1,1,5,Hit,TRUE,TRUE
6,detect-chase-confidence,11/21/2023,05FFEFEBBBF6454F97A3131D7A2969A0,36,267972,3735.2,36,mirror,0,1,5,CR,TRUE,TRUE
6,detect-chase-confidence,11/21/2023,05FFEFEBBBF6454F97A3131D7A2969A0,37,274197,4142.9,278,chase,1,1,3,Hit,TRUE,TRUE
6,detect-chase-confidence,11/21/2023,05FFEFEBBBF6454F97A3131D7A2969A0,38,279548,3513.8,22,chase,0,0,4,Ms,TRUE,TRUE
6,detect-chase-confidence,11/21/2023,05FFEFEBBBF6454F97A3131D7A2969A0,39,283708,2250.3,277,mirror,1,0,5,FA,TRUE,TRUE
6,detect-chase-confidence,11/21/2023,05FFEFEBBBF6454F97A3131D7A2969A0,40,288281,3146.9,1,chase,1,1,5,Hit,TRUE,TRUE
6,detect-chase-confidence,11/21/2023,05FFEFEBBBF6454F97A3131D7A2969A0,41,294266,4389.7,1,mirror,0,1,4,CR,TRUE,TRUE
6,detect-chase-confidence,11/21/2023,05FFEFEBBBF6454F97A3131D7A2969A0,42,299452,3124.5,242,chase,1,1,5,Hit,TRUE,TRUE
6,detect-chase-confidence,11/21/2023,05FFEFEBBBF6454F97A3131D7A2969A0,43,304542,3508.2,127,mirror,0,1,5,CR,TRUE,TRUE
6,detect-chase-confidence,11/21/2023,05FFEFEBBBF6454F97A3131D7A2969A0,44,309237,2719.6,38,chase,1,1,5,Hit,TRUE,TRUE
6,detect-chase-confidence,11/21/2023,05FFEFEBBBF6454F97A3131D7A2969A0,45,315131,3414.6,190,mirror,0,1,5,CR,TRUE,TRUE
6,detect-chase-confidence,11/21/2023,05FFEFEBBBF6454F97A3131D7A2969A0,46,322161,5316.4,86,mirror,1,0,3,FA,TRUE,TRUE
6,detect-chase-confidence,11/21/2023,05FFEFEBBBF6454F97A3131D7A2969A0,47,326915,3336.5,240,mirror,0,1,5,CR,TRUE,TRUE
6,detect-chase-confidence,11/21/2023,05FFEFEBBBF6454F97A3131D7A2969A0,48,331795,3230.8,91,chase,0,0,3,Ms,TRUE,TRUE
6,detect-chase-confidence,11/21/2023,05FFEFEBBBF6454F97A3131D7A2969A0,49,338235,2401.2,181,chase,1,1,5,Hit,TRUE,TRUE
6,detect-chase-confidence,11/21/2023,05FFEFEBBBF6454F97A3131D7A2969A0,50,343516,4017.8,125,chase,0,0,4,Ms,TRUE,TRUE
6,detect-chase-confidence,11/21/2023,05FFEFEBBBF6454F97A3131D7A2969A0,51,348095,2504.3,124,chase,1,1,5,Hit,TRUE,TRUE
6,detect-chase-confidence,11/21/2023,05FFEFEBBBF6454F97A3131D7A2969A0,52,353459,3429.3,49,mirror,0,1,4,CR,TRUE,TRUE
6,detect-chase-confidence,11/21/2023,05FFEFEBBBF6454F97A3131D7A2969A0,53,359495,4247.5,121,mirror,0,1,5,CR,TRUE,TRUE
6,detect-chase-confidence,11/21/2023,05FFEFEBBBF6454F97A3131D7A2969A0,54,365848,4494.9,274,mirror,0,1,4,CR,TRUE,TRUE
